"pNo","condition","congruency","wordShown","correctResp","trialnum","resp","acc","rt","include","mentaldemand","effort","frustration","bored","fatigue","acs","implicitWillpower","bigFiveCon","bsc","srsq"
14,"control","congruent","yellow","yellow",1,"yellow",1,752,1,1,1,1,3.9,1,0.333333333333333,1.66666666666667,4.22222222222222,4.46153846153846,3.4
14,"control","congruent","blue","blue",2,"blue",1,652,1,1,1,1,3.9,1,0.333333333333333,1.66666666666667,4.22222222222222,4.46153846153846,3.4
14,"control","congruent","blue","blue",3,"blue",1,599,1,1,1,1,3.9,1,0.333333333333333,1.66666666666667,4.22222222222222,4.46153846153846,3.4
14,"control","congruent","red","red",4,"red",1,721,1,1,1,1,3.9,1,0.333333333333333,1.66666666666667,4.22222222222222,4.46153846153846,3.4
14,"control","incongruent","yellow","blue",5,"blue",1,812,1,1,1,1,3.9,1,0.333333333333333,1.66666666666667,4.22222222222222,4.46153846153846,3.4
14,"control","incongruent","red","yellow",6,"yellow",1,824,1,1,1,1,3.9,1,0.333333333333333,1.66666666666667,4.22222222222222,4.46153846153846,3.4
14,"control","congruent","red","red",7,"red",1,775,1,1,1,1,3.9,1,0.333333333333333,1.66666666666667,4.22222222222222,4.46153846153846,3.4
14,"control","congruent","yellow","yellow",8,"yellow",1,1400,1,1,1,1,3.9,1,0.333333333333333,1.66666666666667,4.22222222222222,4.46153846153846,3.4
14,"control","incongruent","yellow","red",9,"red",1,999,1,1,1,1,3.9,1,0.333333333333333,1.66666666666667,4.22222222222222,4.46153846153846,3.4
14,"control","incongruent","red","blue",10,"blue",1,1206,1,1,1,1,3.9,1,0.333333333333333,1.66666666666667,4.22222222222222,4.46153846153846,3.4
14,"control","congruent","yellow","yellow",11,"yellow",1,613,1,1,1,1,3.9,1,0.333333333333333,1.66666666666667,4.22222222222222,4.46153846153846,3.4
14,"control","congruent","blue","blue",12,"blue",1,589,1,1,1,1,3.9,1,0.333333333333333,1.66666666666667,4.22222222222222,4.46153846153846,3.4
14,"control","congruent","red","red",13,"red",1,462,1,1,1,1,3.9,1,0.333333333333333,1.66666666666667,4.22222222222222,4.46153846153846,3.4
14,"control","congruent","blue","blue",14,"blue",1,1410,1,1,1,1,3.9,1,0.333333333333333,1.66666666666667,4.22222222222222,4.46153846153846,3.4
14,"control","incongruent","blue","yellow",15,"yellow",1,604,1,1,1,1,3.9,1,0.333333333333333,1.66666666666667,4.22222222222222,4.46153846153846,3.4
14,"control","congruent","yellow","yellow",16,"yellow",1,635,1,1,1,1,3.9,1,0.333333333333333,1.66666666666667,4.22222222222222,4.46153846153846,3.4
14,"control","congruent","red","red",17,"red",1,1034,1,1,1,1,3.9,1,0.333333333333333,1.66666666666667,4.22222222222222,4.46153846153846,3.4
14,"control","incongruent","blue","red",18,"red",1,506,1,1,1,1,3.9,1,0.333333333333333,1.66666666666667,4.22222222222222,4.46153846153846,3.4
14,"control","congruent","red","red",19,"red",1,582,1,1,1,1,3.9,1,0.333333333333333,1.66666666666667,4.22222222222222,4.46153846153846,3.4
14,"control","congruent","blue","blue",20,"blue",1,627,1,1,1,1,3.9,1,0.333333333333333,1.66666666666667,4.22222222222222,4.46153846153846,3.4
14,"control","incongruent","blue","red",21,"red",1,1025,1,1,1,1,3.9,1,0.333333333333333,1.66666666666667,4.22222222222222,4.46153846153846,3.4
14,"control","congruent","yellow","yellow",22,"yellow",1,601,1,1,1,1,3.9,1,0.333333333333333,1.66666666666667,4.22222222222222,4.46153846153846,3.4
14,"control","congruent","red","red",23,"red",1,1322,1,1,1,1,3.9,1,0.333333333333333,1.66666666666667,4.22222222222222,4.46153846153846,3.4
14,"control","congruent","yellow","yellow",24,"yellow",1,692,1,1,1,1,3.9,1,0.333333333333333,1.66666666666667,4.22222222222222,4.46153846153846,3.4
14,"control","incongruent","yellow","blue",25,"blue",1,893,1,1,1,1,3.9,1,0.333333333333333,1.66666666666667,4.22222222222222,4.46153846153846,3.4
14,"control","congruent","blue","blue",26,"blue",1,524,1,1,1,1,3.9,1,0.333333333333333,1.66666666666667,4.22222222222222,4.46153846153846,3.4
14,"control","incongruent","blue","yellow",27,"yellow",1,811,1,1,1,1,3.9,1,0.333333333333333,1.66666666666667,4.22222222222222,4.46153846153846,3.4
14,"control","congruent","yellow","yellow",28,"yellow",1,607,1,1,1,1,3.9,1,0.333333333333333,1.66666666666667,4.22222222222222,4.46153846153846,3.4
14,"control","incongruent","red","blue",29,"yellow",0,1479,1,1,1,1,3.9,1,0.333333333333333,1.66666666666667,4.22222222222222,4.46153846153846,3.4
14,"control","congruent","red","red",30,"red",1,1164,1,1,1,1,3.9,1,0.333333333333333,1.66666666666667,4.22222222222222,4.46153846153846,3.4
14,"control","congruent","red","red",31,"red",1,616,1,1,1,1,3.9,1,0.333333333333333,1.66666666666667,4.22222222222222,4.46153846153846,3.4
14,"control","congruent","blue","blue",32,"blue",1,1421,1,1,1,1,3.9,1,0.333333333333333,1.66666666666667,4.22222222222222,4.46153846153846,3.4
14,"control","incongruent","yellow","red",33,"red",1,1580,1,1,1,1,3.9,1,0.333333333333333,1.66666666666667,4.22222222222222,4.46153846153846,3.4
14,"control","congruent","blue","blue",34,"blue",1,950,1,1,1,1,3.9,1,0.333333333333333,1.66666666666667,4.22222222222222,4.46153846153846,3.4
14,"control","congruent","yellow","yellow",35,"yellow",1,814,1,1,1,1,3.9,1,0.333333333333333,1.66666666666667,4.22222222222222,4.46153846153846,3.4
14,"control","incongruent","red","yellow",36,"yellow",1,1212,1,1,1,1,3.9,1,0.333333333333333,1.66666666666667,4.22222222222222,4.46153846153846,3.4
14,"control","incongruent","blue","red",37,"red",1,827,1,1,1,1,3.9,1,0.333333333333333,1.66666666666667,4.22222222222222,4.46153846153846,3.4
14,"control","congruent","blue","blue",38,"blue",1,658,1,1,1,1,3.9,1,0.333333333333333,1.66666666666667,4.22222222222222,4.46153846153846,3.4
14,"control","congruent","yellow","yellow",39,"yellow",1,497,1,1,1,1,3.9,1,0.333333333333333,1.66666666666667,4.22222222222222,4.46153846153846,3.4
14,"control","congruent","yellow","yellow",40,"yellow",1,582,1,1,1,1,3.9,1,0.333333333333333,1.66666666666667,4.22222222222222,4.46153846153846,3.4
14,"control","incongruent","yellow","blue",41,"blue",1,1003,1,1,1,1,3.9,1,0.333333333333333,1.66666666666667,4.22222222222222,4.46153846153846,3.4
14,"control","incongruent","red","yellow",42,"yellow",1,1561,1,1,1,1,3.9,1,0.333333333333333,1.66666666666667,4.22222222222222,4.46153846153846,3.4
14,"control","congruent","red","red",43,"red",1,915,1,1,1,1,3.9,1,0.333333333333333,1.66666666666667,4.22222222222222,4.46153846153846,3.4
14,"control","congruent","red","red",44,"red",1,676,1,1,1,1,3.9,1,0.333333333333333,1.66666666666667,4.22222222222222,4.46153846153846,3.4
14,"control","congruent","blue","blue",45,"blue",1,917,1,1,1,1,3.9,1,0.333333333333333,1.66666666666667,4.22222222222222,4.46153846153846,3.4
14,"control","congruent","red","red",46,"red",1,787,1,1,1,1,3.9,1,0.333333333333333,1.66666666666667,4.22222222222222,4.46153846153846,3.4
14,"control","congruent","red","red",47,"red",1,960,1,1,1,1,3.9,1,0.333333333333333,1.66666666666667,4.22222222222222,4.46153846153846,3.4
14,"control","congruent","yellow","yellow",48,"yellow",1,673,1,1,1,1,3.9,1,0.333333333333333,1.66666666666667,4.22222222222222,4.46153846153846,3.4
14,"control","congruent","yellow","yellow",49,"yellow",1,556,1,1,1,1,3.9,1,0.333333333333333,1.66666666666667,4.22222222222222,4.46153846153846,3.4
14,"control","congruent","blue","blue",50,"blue",1,624,1,1,1,1,3.9,1,0.333333333333333,1.66666666666667,4.22222222222222,4.46153846153846,3.4
14,"control","incongruent","red","blue",51,"blue",1,884,1,1,1,1,3.9,1,0.333333333333333,1.66666666666667,4.22222222222222,4.46153846153846,3.4
14,"control","congruent","blue","blue",52,"blue",1,778,1,1,1,1,3.9,1,0.333333333333333,1.66666666666667,4.22222222222222,4.46153846153846,3.4
14,"control","incongruent","blue","yellow",53,"yellow",1,630,1,1,1,1,3.9,1,0.333333333333333,1.66666666666667,4.22222222222222,4.46153846153846,3.4
14,"control","incongruent","yellow","red",54,"red",1,499,1,1,1,1,3.9,1,0.333333333333333,1.66666666666667,4.22222222222222,4.46153846153846,3.4
14,"control","congruent","yellow","yellow",55,"yellow",1,688,1,1,1,1,3.9,1,0.333333333333333,1.66666666666667,4.22222222222222,4.46153846153846,3.4
14,"control","congruent","red","red",56,"red",1,704,1,1,1,1,3.9,1,0.333333333333333,1.66666666666667,4.22222222222222,4.46153846153846,3.4
14,"control","congruent","blue","blue",57,"blue",1,551,1,1,1,1,3.9,1,0.333333333333333,1.66666666666667,4.22222222222222,4.46153846153846,3.4
14,"control","congruent","red","red",58,"red",1,717,1,1,1,1,3.9,1,0.333333333333333,1.66666666666667,4.22222222222222,4.46153846153846,3.4
14,"control","incongruent","red","yellow",59,"yellow",1,677,1,1,1,1,3.9,1,0.333333333333333,1.66666666666667,4.22222222222222,4.46153846153846,3.4
14,"control","incongruent","yellow","blue",60,"blue",1,607,1,1,1,1,3.9,1,0.333333333333333,1.66666666666667,4.22222222222222,4.46153846153846,3.4
14,"control","congruent","yellow","yellow",61,"yellow",1,1137,1,1,1,1,3.9,1,0.333333333333333,1.66666666666667,4.22222222222222,4.46153846153846,3.4
14,"control","congruent","blue","blue",62,"blue",1,676,1,1,1,1,3.9,1,0.333333333333333,1.66666666666667,4.22222222222222,4.46153846153846,3.4
14,"control","incongruent","blue","red",63,"red",1,614,1,1,1,1,3.9,1,0.333333333333333,1.66666666666667,4.22222222222222,4.46153846153846,3.4
14,"control","congruent","blue","blue",64,"blue",1,529,1,1,1,1,3.9,1,0.333333333333333,1.66666666666667,4.22222222222222,4.46153846153846,3.4
14,"control","incongruent","yellow","red",65,"red",1,803,1,1,1,1,3.9,1,0.333333333333333,1.66666666666667,4.22222222222222,4.46153846153846,3.4
14,"control","incongruent","blue","yellow",66,"yellow",1,1176,1,1,1,1,3.9,1,0.333333333333333,1.66666666666667,4.22222222222222,4.46153846153846,3.4
14,"control","congruent","red","red",67,"red",1,656,1,1,1,1,3.9,1,0.333333333333333,1.66666666666667,4.22222222222222,4.46153846153846,3.4
14,"control","congruent","blue","blue",68,"blue",1,629,1,1,1,1,3.9,1,0.333333333333333,1.66666666666667,4.22222222222222,4.46153846153846,3.4
14,"control","congruent","yellow","yellow",69,"yellow",1,1006,1,1,1,1,3.9,1,0.333333333333333,1.66666666666667,4.22222222222222,4.46153846153846,3.4
14,"control","congruent","yellow","yellow",70,"yellow",1,614,1,1,1,1,3.9,1,0.333333333333333,1.66666666666667,4.22222222222222,4.46153846153846,3.4
14,"control","incongruent","red","blue",71,"blue",1,646,1,1,1,1,3.9,1,0.333333333333333,1.66666666666667,4.22222222222222,4.46153846153846,3.4
14,"control","congruent","red","red",72,"red",1,596,1,1,1,1,3.9,1,0.333333333333333,1.66666666666667,4.22222222222222,4.46153846153846,3.4
14,"control","congruent","blue","blue",73,"blue",1,733,1,1,1,1,3.9,1,0.333333333333333,1.66666666666667,4.22222222222222,4.46153846153846,3.4
14,"control","congruent","yellow","yellow",74,"yellow",1,663,1,1,1,1,3.9,1,0.333333333333333,1.66666666666667,4.22222222222222,4.46153846153846,3.4
14,"control","congruent","blue","blue",75,"blue",1,1233,1,1,1,1,3.9,1,0.333333333333333,1.66666666666667,4.22222222222222,4.46153846153846,3.4
14,"control","congruent","yellow","yellow",76,"yellow",1,594,1,1,1,1,3.9,1,0.333333333333333,1.66666666666667,4.22222222222222,4.46153846153846,3.4
14,"control","incongruent","red","blue",77,"blue",1,731,1,1,1,1,3.9,1,0.333333333333333,1.66666666666667,4.22222222222222,4.46153846153846,3.4
14,"control","congruent","red","red",78,"red",1,590,1,1,1,1,3.9,1,0.333333333333333,1.66666666666667,4.22222222222222,4.46153846153846,3.4
14,"control","congruent","red","red",79,"red",1,611,1,1,1,1,3.9,1,0.333333333333333,1.66666666666667,4.22222222222222,4.46153846153846,3.4
14,"control","incongruent","blue","red",80,"red",1,882,1,1,1,1,3.9,1,0.333333333333333,1.66666666666667,4.22222222222222,4.46153846153846,3.4
14,"control","incongruent","red","yellow",81,"yellow",1,822,1,1,1,1,3.9,1,0.333333333333333,1.66666666666667,4.22222222222222,4.46153846153846,3.4
14,"control","incongruent","blue","yellow",82,"yellow",1,593,1,1,1,1,3.9,1,0.333333333333333,1.66666666666667,4.22222222222222,4.46153846153846,3.4
14,"control","congruent","yellow","yellow",83,"yellow",1,777,1,1,1,1,3.9,1,0.333333333333333,1.66666666666667,4.22222222222222,4.46153846153846,3.4
14,"control","congruent","blue","blue",84,"blue",1,577,1,1,1,1,3.9,1,0.333333333333333,1.66666666666667,4.22222222222222,4.46153846153846,3.4
14,"control","congruent","blue","blue",85,"blue",1,521,1,1,1,1,3.9,1,0.333333333333333,1.66666666666667,4.22222222222222,4.46153846153846,3.4
14,"control","incongruent","yellow","blue",86,"blue",1,522,1,1,1,1,3.9,1,0.333333333333333,1.66666666666667,4.22222222222222,4.46153846153846,3.4
14,"control","congruent","red","red",87,"red",1,554,1,1,1,1,3.9,1,0.333333333333333,1.66666666666667,4.22222222222222,4.46153846153846,3.4
14,"control","congruent","red","red",88,"red",1,576,1,1,1,1,3.9,1,0.333333333333333,1.66666666666667,4.22222222222222,4.46153846153846,3.4
14,"control","incongruent","yellow","red",89,"red",1,550,1,1,1,1,3.9,1,0.333333333333333,1.66666666666667,4.22222222222222,4.46153846153846,3.4
14,"control","congruent","yellow","yellow",90,"yellow",1,1311,1,1,1,1,3.9,1,0.333333333333333,1.66666666666667,4.22222222222222,4.46153846153846,3.4
14,"control","congruent","red","red",91,"red",1,1033,1,1,1,1,3.9,1,0.333333333333333,1.66666666666667,4.22222222222222,4.46153846153846,3.4
14,"control","incongruent","blue","yellow",92,"yellow",1,1179,1,1,1,1,3.9,1,0.333333333333333,1.66666666666667,4.22222222222222,4.46153846153846,3.4
14,"control","congruent","blue","blue",93,"blue",1,693,1,1,1,1,3.9,1,0.333333333333333,1.66666666666667,4.22222222222222,4.46153846153846,3.4
14,"control","congruent","blue","blue",94,"blue",1,536,1,1,1,1,3.9,1,0.333333333333333,1.66666666666667,4.22222222222222,4.46153846153846,3.4
14,"control","incongruent","blue","red",95,"red",1,703,1,1,1,1,3.9,1,0.333333333333333,1.66666666666667,4.22222222222222,4.46153846153846,3.4
14,"control","congruent","yellow","yellow",96,"yellow",1,591,1,1,1,1,3.9,1,0.333333333333333,1.66666666666667,4.22222222222222,4.46153846153846,3.4
14,"control","congruent","yellow","yellow",97,"yellow",1,707,1,1,1,1,3.9,1,0.333333333333333,1.66666666666667,4.22222222222222,4.46153846153846,3.4
14,"control","incongruent","yellow","blue",98,"red",0,886,1,1,1,1,3.9,1,0.333333333333333,1.66666666666667,4.22222222222222,4.46153846153846,3.4
14,"control","congruent","red","red",99,"red",1,695,1,1,1,1,3.9,1,0.333333333333333,1.66666666666667,4.22222222222222,4.46153846153846,3.4
14,"control","congruent","blue","blue",100,"blue",1,1598,1,1,1,1,3.9,1,0.333333333333333,1.66666666666667,4.22222222222222,4.46153846153846,3.4
14,"control","congruent","yellow","yellow",101,"yellow",1,617,1,1,1,1,3.9,1,0.333333333333333,1.66666666666667,4.22222222222222,4.46153846153846,3.4
14,"control","congruent","yellow","yellow",102,"yellow",1,456,1,1,1,1,3.9,1,0.333333333333333,1.66666666666667,4.22222222222222,4.46153846153846,3.4
14,"control","incongruent","yellow","red",103,"red",1,1237,1,1,1,1,3.9,1,0.333333333333333,1.66666666666667,4.22222222222222,4.46153846153846,3.4
14,"control","congruent","red","red",104,"red",1,710,1,1,1,1,3.9,1,0.333333333333333,1.66666666666667,4.22222222222222,4.46153846153846,3.4
14,"control","incongruent","red","yellow",105,"blue",0,954,1,1,1,1,3.9,1,0.333333333333333,1.66666666666667,4.22222222222222,4.46153846153846,3.4
14,"control","incongruent","red","blue",106,"blue",1,400,1,1,1,1,3.9,1,0.333333333333333,1.66666666666667,4.22222222222222,4.46153846153846,3.4
14,"control","congruent","red","red",107,"red",1,735,1,1,1,1,3.9,1,0.333333333333333,1.66666666666667,4.22222222222222,4.46153846153846,3.4
14,"control","congruent","blue","blue",108,"blue",1,681,1,1,1,1,3.9,1,0.333333333333333,1.66666666666667,4.22222222222222,4.46153846153846,3.4
14,"control","congruent","blue","blue",109,"blue",1,499,1,1,1,1,3.9,1,0.333333333333333,1.66666666666667,4.22222222222222,4.46153846153846,3.4
14,"control","congruent","red","red",110,"red",1,569,1,1,1,1,3.9,1,0.333333333333333,1.66666666666667,4.22222222222222,4.46153846153846,3.4
14,"control","congruent","yellow","yellow",111,"yellow",1,502,1,1,1,1,3.9,1,0.333333333333333,1.66666666666667,4.22222222222222,4.46153846153846,3.4
14,"control","congruent","red","red",112,"red",1,512,1,1,1,1,3.9,1,0.333333333333333,1.66666666666667,4.22222222222222,4.46153846153846,3.4
14,"control","congruent","yellow","yellow",113,"yellow",1,839,1,1,1,1,3.9,1,0.333333333333333,1.66666666666667,4.22222222222222,4.46153846153846,3.4
14,"control","congruent","blue","blue",114,"blue",1,522,1,1,1,1,3.9,1,0.333333333333333,1.66666666666667,4.22222222222222,4.46153846153846,3.4
14,"control","incongruent","red","yellow",115,"yellow",1,846,1,1,1,1,3.9,1,0.333333333333333,1.66666666666667,4.22222222222222,4.46153846153846,3.4
14,"control","incongruent","red","blue",116,"blue",1,545,1,1,1,1,3.9,1,0.333333333333333,1.66666666666667,4.22222222222222,4.46153846153846,3.4
14,"control","incongruent","blue","red",117,"red",1,548,1,1,1,1,3.9,1,0.333333333333333,1.66666666666667,4.22222222222222,4.46153846153846,3.4
14,"control","congruent","red","red",118,"red",1,572,1,1,1,1,3.9,1,0.333333333333333,1.66666666666667,4.22222222222222,4.46153846153846,3.4
14,"control","incongruent","yellow","red",119,"red",1,642,1,1,1,1,3.9,1,0.333333333333333,1.66666666666667,4.22222222222222,4.46153846153846,3.4
14,"control","incongruent","yellow","blue",120,"blue",1,919,1,1,1,1,3.9,1,0.333333333333333,1.66666666666667,4.22222222222222,4.46153846153846,3.4
14,"control","congruent","blue","blue",121,"blue",1,532,1,1,1,1,3.9,1,0.333333333333333,1.66666666666667,4.22222222222222,4.46153846153846,3.4
14,"control","congruent","yellow","yellow",122,"yellow",1,731,1,1,1,1,3.9,1,0.333333333333333,1.66666666666667,4.22222222222222,4.46153846153846,3.4
14,"control","congruent","blue","blue",123,"blue",1,658,1,1,1,1,3.9,1,0.333333333333333,1.66666666666667,4.22222222222222,4.46153846153846,3.4
14,"control","congruent","yellow","yellow",124,"yellow",1,621,1,1,1,1,3.9,1,0.333333333333333,1.66666666666667,4.22222222222222,4.46153846153846,3.4
14,"control","congruent","red","red",125,"red",1,782,1,1,1,1,3.9,1,0.333333333333333,1.66666666666667,4.22222222222222,4.46153846153846,3.4
14,"control","incongruent","blue","yellow",126,"yellow",1,1175,1,1,1,1,3.9,1,0.333333333333333,1.66666666666667,4.22222222222222,4.46153846153846,3.4
14,"control","congruent","red","red",127,"blue",0,936,1,1,1,1,3.9,1,0.333333333333333,1.66666666666667,4.22222222222222,4.46153846153846,3.4
14,"control","incongruent","red","blue",128,"blue",1,833,1,1,1,1,3.9,1,0.333333333333333,1.66666666666667,4.22222222222222,4.46153846153846,3.4
14,"control","congruent","blue","blue",129,"blue",1,877,1,1,1,1,3.9,1,0.333333333333333,1.66666666666667,4.22222222222222,4.46153846153846,3.4
14,"control","incongruent","blue","yellow",130,"yellow",1,603,1,1,1,1,3.9,1,0.333333333333333,1.66666666666667,4.22222222222222,4.46153846153846,3.4
14,"control","congruent","blue","blue",131,"blue",1,4462,1,1,1,1,3.9,1,0.333333333333333,1.66666666666667,4.22222222222222,4.46153846153846,3.4
14,"control","congruent","yellow","yellow",132,"yellow",1,723,1,1,1,1,3.9,1,0.333333333333333,1.66666666666667,4.22222222222222,4.46153846153846,3.4
14,"control","incongruent","yellow","red",133,"red",1,890,1,1,1,1,3.9,1,0.333333333333333,1.66666666666667,4.22222222222222,4.46153846153846,3.4
14,"control","congruent","red","red",134,"red",1,642,1,1,1,1,3.9,1,0.333333333333333,1.66666666666667,4.22222222222222,4.46153846153846,3.4
14,"control","congruent","yellow","yellow",135,"yellow",1,932,1,1,1,1,3.9,1,0.333333333333333,1.66666666666667,4.22222222222222,4.46153846153846,3.4
14,"control","incongruent","blue","red",136,"red",1,752,1,1,1,1,3.9,1,0.333333333333333,1.66666666666667,4.22222222222222,4.46153846153846,3.4
14,"control","incongruent","red","yellow",137,"yellow",1,847,1,1,1,1,3.9,1,0.333333333333333,1.66666666666667,4.22222222222222,4.46153846153846,3.4
14,"control","congruent","yellow","yellow",138,"yellow",1,619,1,1,1,1,3.9,1,0.333333333333333,1.66666666666667,4.22222222222222,4.46153846153846,3.4
14,"control","congruent","yellow","yellow",139,"yellow",1,475,1,1,1,1,3.9,1,0.333333333333333,1.66666666666667,4.22222222222222,4.46153846153846,3.4
14,"control","congruent","red","red",140,"red",1,593,1,1,1,1,3.9,1,0.333333333333333,1.66666666666667,4.22222222222222,4.46153846153846,3.4
14,"control","congruent","blue","blue",141,"blue",1,739,1,1,1,1,3.9,1,0.333333333333333,1.66666666666667,4.22222222222222,4.46153846153846,3.4
14,"control","congruent","blue","blue",142,"blue",1,493,1,1,1,1,3.9,1,0.333333333333333,1.66666666666667,4.22222222222222,4.46153846153846,3.4
14,"control","congruent","red","red",143,"red",1,599,1,1,1,1,3.9,1,0.333333333333333,1.66666666666667,4.22222222222222,4.46153846153846,3.4
14,"control","incongruent","yellow","blue",144,"blue",1,1410,1,1,1,1,3.9,1,0.333333333333333,1.66666666666667,4.22222222222222,4.46153846153846,3.4
14,"control","congruent","red","red",145,"red",1,1145,1,1,1,1,3.9,1,0.333333333333333,1.66666666666667,4.22222222222222,4.46153846153846,3.4
14,"control","congruent","yellow","yellow",146,"yellow",1,515,1,1,1,1,3.9,1,0.333333333333333,1.66666666666667,4.22222222222222,4.46153846153846,3.4
14,"control","congruent","blue","blue",147,"blue",1,844,1,1,1,1,3.9,1,0.333333333333333,1.66666666666667,4.22222222222222,4.46153846153846,3.4
14,"control","incongruent","red","yellow",148,"yellow",1,1583,1,1,1,1,3.9,1,0.333333333333333,1.66666666666667,4.22222222222222,4.46153846153846,3.4
14,"control","congruent","blue","blue",149,"blue",1,737,1,1,1,1,3.9,1,0.333333333333333,1.66666666666667,4.22222222222222,4.46153846153846,3.4
14,"control","congruent","red","red",150,"red",1,722,1,1,1,1,3.9,1,0.333333333333333,1.66666666666667,4.22222222222222,4.46153846153846,3.4
14,"control","congruent","yellow","yellow",151,"yellow",1,706,1,1,1,1,3.9,1,0.333333333333333,1.66666666666667,4.22222222222222,4.46153846153846,3.4
14,"control","incongruent","yellow","blue",152,"blue",1,2098,1,1,1,1,3.9,1,0.333333333333333,1.66666666666667,4.22222222222222,4.46153846153846,3.4
14,"control","incongruent","yellow","red",153,"red",1,706,1,1,1,1,3.9,1,0.333333333333333,1.66666666666667,4.22222222222222,4.46153846153846,3.4
14,"control","congruent","yellow","yellow",154,"yellow",1,1033,1,1,1,1,3.9,1,0.333333333333333,1.66666666666667,4.22222222222222,4.46153846153846,3.4
14,"control","incongruent","blue","yellow",155,"yellow",1,996,1,1,1,1,3.9,1,0.333333333333333,1.66666666666667,4.22222222222222,4.46153846153846,3.4
14,"control","congruent","blue","blue",156,"blue",1,957,1,1,1,1,3.9,1,0.333333333333333,1.66666666666667,4.22222222222222,4.46153846153846,3.4
14,"control","congruent","red","red",157,"red",1,535,1,1,1,1,3.9,1,0.333333333333333,1.66666666666667,4.22222222222222,4.46153846153846,3.4
14,"control","incongruent","red","blue",158,"blue",1,872,1,1,1,1,3.9,1,0.333333333333333,1.66666666666667,4.22222222222222,4.46153846153846,3.4
14,"control","incongruent","blue","red",159,"red",1,649,1,1,1,1,3.9,1,0.333333333333333,1.66666666666667,4.22222222222222,4.46153846153846,3.4
14,"control","congruent","blue","blue",160,"blue",1,634,1,1,1,1,3.9,1,0.333333333333333,1.66666666666667,4.22222222222222,4.46153846153846,3.4
14,"control","congruent","yellow","yellow",161,"yellow",1,618,1,1,1,1,3.9,1,0.333333333333333,1.66666666666667,4.22222222222222,4.46153846153846,3.4
14,"control","congruent","red","red",162,"red",1,626,1,1,1,1,3.9,1,0.333333333333333,1.66666666666667,4.22222222222222,4.46153846153846,3.4
14,"control","congruent","yellow","yellow",163,"yellow",1,1258,1,1,1,1,3.9,1,0.333333333333333,1.66666666666667,4.22222222222222,4.46153846153846,3.4
14,"control","congruent","red","red",164,"red",1,704,1,1,1,1,3.9,1,0.333333333333333,1.66666666666667,4.22222222222222,4.46153846153846,3.4
14,"control","congruent","red","red",165,"red",1,533,1,1,1,1,3.9,1,0.333333333333333,1.66666666666667,4.22222222222222,4.46153846153846,3.4
14,"control","incongruent","blue","yellow",166,"yellow",1,836,1,1,1,1,3.9,1,0.333333333333333,1.66666666666667,4.22222222222222,4.46153846153846,3.4
14,"control","incongruent","yellow","blue",167,"blue",1,607,1,1,1,1,3.9,1,0.333333333333333,1.66666666666667,4.22222222222222,4.46153846153846,3.4
14,"control","congruent","blue","blue",168,"blue",1,560,1,1,1,1,3.9,1,0.333333333333333,1.66666666666667,4.22222222222222,4.46153846153846,3.4
14,"control","incongruent","blue","red",169,"red",1,682,1,1,1,1,3.9,1,0.333333333333333,1.66666666666667,4.22222222222222,4.46153846153846,3.4
14,"control","congruent","blue","blue",170,"blue",1,628,1,1,1,1,3.9,1,0.333333333333333,1.66666666666667,4.22222222222222,4.46153846153846,3.4
14,"control","congruent","yellow","yellow",171,"yellow",1,614,1,1,1,1,3.9,1,0.333333333333333,1.66666666666667,4.22222222222222,4.46153846153846,3.4
14,"control","incongruent","yellow","red",172,"red",1,422,1,1,1,1,3.9,1,0.333333333333333,1.66666666666667,4.22222222222222,4.46153846153846,3.4
14,"control","incongruent","red","blue",173,"blue",1,398,1,1,1,1,3.9,1,0.333333333333333,1.66666666666667,4.22222222222222,4.46153846153846,3.4
14,"control","congruent","blue","blue",174,"blue",1,478,1,1,1,1,3.9,1,0.333333333333333,1.66666666666667,4.22222222222222,4.46153846153846,3.4
14,"control","congruent","yellow","yellow",175,"yellow",1,587,1,1,1,1,3.9,1,0.333333333333333,1.66666666666667,4.22222222222222,4.46153846153846,3.4
14,"control","congruent","blue","blue",176,"yellow",0,678,1,1,1,1,3.9,1,0.333333333333333,1.66666666666667,4.22222222222222,4.46153846153846,3.4
14,"control","congruent","yellow","yellow",177,"yellow",1,1050,1,1,1,1,3.9,1,0.333333333333333,1.66666666666667,4.22222222222222,4.46153846153846,3.4
14,"control","incongruent","red","yellow",178,"yellow",1,483,1,1,1,1,3.9,1,0.333333333333333,1.66666666666667,4.22222222222222,4.46153846153846,3.4
14,"control","congruent","red","red",179,"red",1,665,1,1,1,1,3.9,1,0.333333333333333,1.66666666666667,4.22222222222222,4.46153846153846,3.4
14,"control","congruent","red","red",180,"red",1,785,1,1,1,1,3.9,1,0.333333333333333,1.66666666666667,4.22222222222222,4.46153846153846,3.4
14,"test","congruent","red","red",1,"red",1,960,1,4.2,5.2,3.4,7,NA,0.333333333333333,1.66666666666667,4.22222222222222,4.46153846153846,3.4
14,"test","congruent","blue","blue",2,"blue",1,895,1,4.2,5.2,3.4,7,NA,0.333333333333333,1.66666666666667,4.22222222222222,4.46153846153846,3.4
14,"test","congruent","blue","blue",3,"blue",1,617,1,4.2,5.2,3.4,7,NA,0.333333333333333,1.66666666666667,4.22222222222222,4.46153846153846,3.4
14,"test","incongruent","blue","yellow",4,"yellow",1,788,1,4.2,5.2,3.4,7,NA,0.333333333333333,1.66666666666667,4.22222222222222,4.46153846153846,3.4
14,"test","incongruent","red","blue",5,"blue",1,1149,1,4.2,5.2,3.4,7,NA,0.333333333333333,1.66666666666667,4.22222222222222,4.46153846153846,3.4
14,"test","incongruent","blue","red",6,"red",1,822,1,4.2,5.2,3.4,7,NA,0.333333333333333,1.66666666666667,4.22222222222222,4.46153846153846,3.4
14,"test","congruent","yellow","yellow",7,"yellow",1,4187,1,4.2,5.2,3.4,7,NA,0.333333333333333,1.66666666666667,4.22222222222222,4.46153846153846,3.4
14,"test","congruent","red","red",8,"red",1,979,1,4.2,5.2,3.4,7,NA,0.333333333333333,1.66666666666667,4.22222222222222,4.46153846153846,3.4
14,"test","congruent","yellow","yellow",9,"yellow",1,736,1,4.2,5.2,3.4,7,NA,0.333333333333333,1.66666666666667,4.22222222222222,4.46153846153846,3.4
14,"test","congruent","yellow","yellow",10,"yellow",1,601,1,4.2,5.2,3.4,7,NA,0.333333333333333,1.66666666666667,4.22222222222222,4.46153846153846,3.4
14,"test","congruent","blue","blue",11,"blue",1,838,1,4.2,5.2,3.4,7,NA,0.333333333333333,1.66666666666667,4.22222222222222,4.46153846153846,3.4
14,"test","congruent","red","red",12,"red",1,684,1,4.2,5.2,3.4,7,NA,0.333333333333333,1.66666666666667,4.22222222222222,4.46153846153846,3.4
14,"test","incongruent","yellow","red",13,"red",1,818,1,4.2,5.2,3.4,7,NA,0.333333333333333,1.66666666666667,4.22222222222222,4.46153846153846,3.4
14,"test","incongruent","red","yellow",14,"yellow",1,836,1,4.2,5.2,3.4,7,NA,0.333333333333333,1.66666666666667,4.22222222222222,4.46153846153846,3.4
14,"test","congruent","yellow","yellow",15,"yellow",1,563,1,4.2,5.2,3.4,7,NA,0.333333333333333,1.66666666666667,4.22222222222222,4.46153846153846,3.4
14,"test","incongruent","yellow","blue",16,"blue",1,693,1,4.2,5.2,3.4,7,NA,0.333333333333333,1.66666666666667,4.22222222222222,4.46153846153846,3.4
14,"test","congruent","red","red",17,"red",1,536,1,4.2,5.2,3.4,7,NA,0.333333333333333,1.66666666666667,4.22222222222222,4.46153846153846,3.4
14,"test","congruent","blue","blue",18,"blue",1,486,1,4.2,5.2,3.4,7,NA,0.333333333333333,1.66666666666667,4.22222222222222,4.46153846153846,3.4
14,"test","congruent","yellow","yellow",19,"yellow",1,639,1,4.2,5.2,3.4,7,NA,0.333333333333333,1.66666666666667,4.22222222222222,4.46153846153846,3.4
14,"test","congruent","red","red",20,"red",1,593,1,4.2,5.2,3.4,7,NA,0.333333333333333,1.66666666666667,4.22222222222222,4.46153846153846,3.4
14,"test","incongruent","blue","red",21,"blue",0,794,1,4.2,5.2,3.4,7,NA,0.333333333333333,1.66666666666667,4.22222222222222,4.46153846153846,3.4
14,"test","incongruent","blue","yellow",22,"yellow",1,657,1,4.2,5.2,3.4,7,NA,0.333333333333333,1.66666666666667,4.22222222222222,4.46153846153846,3.4
14,"test","congruent","blue","blue",23,"blue",1,654,1,4.2,5.2,3.4,7,NA,0.333333333333333,1.66666666666667,4.22222222222222,4.46153846153846,3.4
14,"test","incongruent","yellow","blue",24,"blue",1,758,1,4.2,5.2,3.4,7,NA,0.333333333333333,1.66666666666667,4.22222222222222,4.46153846153846,3.4
14,"test","congruent","blue","blue",25,"blue",1,578,1,4.2,5.2,3.4,7,NA,0.333333333333333,1.66666666666667,4.22222222222222,4.46153846153846,3.4
14,"test","congruent","red","red",26,"red",1,545,1,4.2,5.2,3.4,7,NA,0.333333333333333,1.66666666666667,4.22222222222222,4.46153846153846,3.4
14,"test","congruent","yellow","yellow",27,"yellow",1,729,1,4.2,5.2,3.4,7,NA,0.333333333333333,1.66666666666667,4.22222222222222,4.46153846153846,3.4
14,"test","incongruent","yellow","red",28,"red",1,505,1,4.2,5.2,3.4,7,NA,0.333333333333333,1.66666666666667,4.22222222222222,4.46153846153846,3.4
14,"test","congruent","blue","blue",29,"blue",1,610,1,4.2,5.2,3.4,7,NA,0.333333333333333,1.66666666666667,4.22222222222222,4.46153846153846,3.4
14,"test","congruent","yellow","yellow",30,"yellow",1,429,1,4.2,5.2,3.4,7,NA,0.333333333333333,1.66666666666667,4.22222222222222,4.46153846153846,3.4
14,"test","congruent","blue","blue",31,"blue",1,604,1,4.2,5.2,3.4,7,NA,0.333333333333333,1.66666666666667,4.22222222222222,4.46153846153846,3.4
14,"test","incongruent","red","blue",32,"blue",1,548,1,4.2,5.2,3.4,7,NA,0.333333333333333,1.66666666666667,4.22222222222222,4.46153846153846,3.4
14,"test","congruent","yellow","yellow",33,"yellow",1,591,1,4.2,5.2,3.4,7,NA,0.333333333333333,1.66666666666667,4.22222222222222,4.46153846153846,3.4
14,"test","congruent","red","red",34,"red",1,668,1,4.2,5.2,3.4,7,NA,0.333333333333333,1.66666666666667,4.22222222222222,4.46153846153846,3.4
14,"test","incongruent","red","yellow",35,"blue",0,1121,1,4.2,5.2,3.4,7,NA,0.333333333333333,1.66666666666667,4.22222222222222,4.46153846153846,3.4
14,"test","congruent","red","red",36,"red",1,750,1,4.2,5.2,3.4,7,NA,0.333333333333333,1.66666666666667,4.22222222222222,4.46153846153846,3.4
14,"test","congruent","yellow","yellow",37,"yellow",1,685,1,4.2,5.2,3.4,7,NA,0.333333333333333,1.66666666666667,4.22222222222222,4.46153846153846,3.4
14,"test","incongruent","blue","yellow",38,"yellow",1,567,1,4.2,5.2,3.4,7,NA,0.333333333333333,1.66666666666667,4.22222222222222,4.46153846153846,3.4
14,"test","congruent","blue","blue",39,"blue",1,715,1,4.2,5.2,3.4,7,NA,0.333333333333333,1.66666666666667,4.22222222222222,4.46153846153846,3.4
14,"test","congruent","blue","blue",40,"blue",1,653,1,4.2,5.2,3.4,7,NA,0.333333333333333,1.66666666666667,4.22222222222222,4.46153846153846,3.4
14,"test","congruent","red","red",41,"red",1,839,1,4.2,5.2,3.4,7,NA,0.333333333333333,1.66666666666667,4.22222222222222,4.46153846153846,3.4
14,"test","incongruent","red","blue",42,"blue",1,1471,1,4.2,5.2,3.4,7,NA,0.333333333333333,1.66666666666667,4.22222222222222,4.46153846153846,3.4
14,"test","incongruent","yellow","red",43,"red",1,1037,1,4.2,5.2,3.4,7,NA,0.333333333333333,1.66666666666667,4.22222222222222,4.46153846153846,3.4
14,"test","congruent","red","red",44,"red",1,646,1,4.2,5.2,3.4,7,NA,0.333333333333333,1.66666666666667,4.22222222222222,4.46153846153846,3.4
14,"test","congruent","yellow","yellow",45,"yellow",1,573,1,4.2,5.2,3.4,7,NA,0.333333333333333,1.66666666666667,4.22222222222222,4.46153846153846,3.4
14,"test","congruent","red","red",46,"red",1,1016,1,4.2,5.2,3.4,7,NA,0.333333333333333,1.66666666666667,4.22222222222222,4.46153846153846,3.4
14,"test","congruent","blue","blue",47,"blue",1,974,1,4.2,5.2,3.4,7,NA,0.333333333333333,1.66666666666667,4.22222222222222,4.46153846153846,3.4
14,"test","congruent","blue","blue",48,"blue",1,647,1,4.2,5.2,3.4,7,NA,0.333333333333333,1.66666666666667,4.22222222222222,4.46153846153846,3.4
14,"test","incongruent","yellow","blue",49,"yellow",0,876,1,4.2,5.2,3.4,7,NA,0.333333333333333,1.66666666666667,4.22222222222222,4.46153846153846,3.4
14,"test","congruent","yellow","yellow",50,"yellow",1,690,1,4.2,5.2,3.4,7,NA,0.333333333333333,1.66666666666667,4.22222222222222,4.46153846153846,3.4
14,"test","congruent","red","red",51,"red",1,1002,1,4.2,5.2,3.4,7,NA,0.333333333333333,1.66666666666667,4.22222222222222,4.46153846153846,3.4
14,"test","incongruent","red","yellow",52,"blue",0,1045,1,4.2,5.2,3.4,7,NA,0.333333333333333,1.66666666666667,4.22222222222222,4.46153846153846,3.4
14,"test","incongruent","blue","red",53,"red",1,1587,1,4.2,5.2,3.4,7,NA,0.333333333333333,1.66666666666667,4.22222222222222,4.46153846153846,3.4
14,"test","congruent","yellow","yellow",54,"yellow",1,701,1,4.2,5.2,3.4,7,NA,0.333333333333333,1.66666666666667,4.22222222222222,4.46153846153846,3.4
14,"test","congruent","yellow","yellow",55,"yellow",1,528,1,4.2,5.2,3.4,7,NA,0.333333333333333,1.66666666666667,4.22222222222222,4.46153846153846,3.4
14,"test","incongruent","blue","yellow",56,"yellow",1,671,1,4.2,5.2,3.4,7,NA,0.333333333333333,1.66666666666667,4.22222222222222,4.46153846153846,3.4
14,"test","congruent","yellow","yellow",57,"yellow",1,513,1,4.2,5.2,3.4,7,NA,0.333333333333333,1.66666666666667,4.22222222222222,4.46153846153846,3.4
14,"test","congruent","red","red",58,"red",1,623,1,4.2,5.2,3.4,7,NA,0.333333333333333,1.66666666666667,4.22222222222222,4.46153846153846,3.4
14,"test","congruent","red","red",59,"red",1,602,1,4.2,5.2,3.4,7,NA,0.333333333333333,1.66666666666667,4.22222222222222,4.46153846153846,3.4
14,"test","congruent","blue","blue",60,"blue",1,571,1,4.2,5.2,3.4,7,NA,0.333333333333333,1.66666666666667,4.22222222222222,4.46153846153846,3.4
14,"test","congruent","blue","blue",61,"blue",1,556,1,4.2,5.2,3.4,7,NA,0.333333333333333,1.66666666666667,4.22222222222222,4.46153846153846,3.4
14,"test","incongruent","red","blue",62,"blue",1,612,1,4.2,5.2,3.4,7,NA,0.333333333333333,1.66666666666667,4.22222222222222,4.46153846153846,3.4
14,"test","incongruent","yellow","red",63,"red",1,905,1,4.2,5.2,3.4,7,NA,0.333333333333333,1.66666666666667,4.22222222222222,4.46153846153846,3.4
14,"test","congruent","yellow","yellow",64,"yellow",1,797,1,4.2,5.2,3.4,7,NA,0.333333333333333,1.66666666666667,4.22222222222222,4.46153846153846,3.4
14,"test","congruent","yellow","yellow",65,"yellow",1,609,1,4.2,5.2,3.4,7,NA,0.333333333333333,1.66666666666667,4.22222222222222,4.46153846153846,3.4
14,"test","congruent","red","red",66,"red",1,744,1,4.2,5.2,3.4,7,NA,0.333333333333333,1.66666666666667,4.22222222222222,4.46153846153846,3.4
14,"test","incongruent","blue","red",67,"red",1,1154,1,4.2,5.2,3.4,7,NA,0.333333333333333,1.66666666666667,4.22222222222222,4.46153846153846,3.4
14,"test","congruent","blue","blue",68,"blue",1,842,1,4.2,5.2,3.4,7,NA,0.333333333333333,1.66666666666667,4.22222222222222,4.46153846153846,3.4
14,"test","congruent","blue","blue",69,"blue",1,494,1,4.2,5.2,3.4,7,NA,0.333333333333333,1.66666666666667,4.22222222222222,4.46153846153846,3.4
14,"test","incongruent","yellow","blue",70,"blue",1,555,1,4.2,5.2,3.4,7,NA,0.333333333333333,1.66666666666667,4.22222222222222,4.46153846153846,3.4
14,"test","incongruent","red","yellow",71,"yellow",1,784,1,4.2,5.2,3.4,7,NA,0.333333333333333,1.66666666666667,4.22222222222222,4.46153846153846,3.4
14,"test","congruent","red","red",72,"red",1,687,1,4.2,5.2,3.4,7,NA,0.333333333333333,1.66666666666667,4.22222222222222,4.46153846153846,3.4
14,"test","congruent","blue","blue",73,"blue",1,610,1,4.2,5.2,3.4,7,NA,0.333333333333333,1.66666666666667,4.22222222222222,4.46153846153846,3.4
14,"test","congruent","red","red",74,"red",1,805,1,4.2,5.2,3.4,7,NA,0.333333333333333,1.66666666666667,4.22222222222222,4.46153846153846,3.4
14,"test","congruent","yellow","yellow",75,"yellow",1,677,1,4.2,5.2,3.4,7,NA,0.333333333333333,1.66666666666667,4.22222222222222,4.46153846153846,3.4
14,"test","congruent","yellow","yellow",76,"yellow",1,506,1,4.2,5.2,3.4,7,NA,0.333333333333333,1.66666666666667,4.22222222222222,4.46153846153846,3.4
14,"test","congruent","blue","blue",77,"blue",1,696,1,4.2,5.2,3.4,7,NA,0.333333333333333,1.66666666666667,4.22222222222222,4.46153846153846,3.4
14,"test","incongruent","yellow","red",78,"red",1,768,1,4.2,5.2,3.4,7,NA,0.333333333333333,1.66666666666667,4.22222222222222,4.46153846153846,3.4
14,"test","congruent","red","red",79,"red",1,813,1,4.2,5.2,3.4,7,NA,0.333333333333333,1.66666666666667,4.22222222222222,4.46153846153846,3.4
14,"test","incongruent","yellow","blue",80,"blue",1,1403,1,4.2,5.2,3.4,7,NA,0.333333333333333,1.66666666666667,4.22222222222222,4.46153846153846,3.4
14,"test","incongruent","red","yellow",81,"red",0,723,1,4.2,5.2,3.4,7,NA,0.333333333333333,1.66666666666667,4.22222222222222,4.46153846153846,3.4
14,"test","congruent","red","red",82,"red",1,670,1,4.2,5.2,3.4,7,NA,0.333333333333333,1.66666666666667,4.22222222222222,4.46153846153846,3.4
14,"test","incongruent","red","blue",83,"blue",1,783,1,4.2,5.2,3.4,7,NA,0.333333333333333,1.66666666666667,4.22222222222222,4.46153846153846,3.4
14,"test","congruent","blue","blue",84,"blue",1,611,1,4.2,5.2,3.4,7,NA,0.333333333333333,1.66666666666667,4.22222222222222,4.46153846153846,3.4
14,"test","incongruent","blue","yellow",85,"yellow",1,706,1,4.2,5.2,3.4,7,NA,0.333333333333333,1.66666666666667,4.22222222222222,4.46153846153846,3.4
14,"test","congruent","yellow","yellow",86,"yellow",1,637,1,4.2,5.2,3.4,7,NA,0.333333333333333,1.66666666666667,4.22222222222222,4.46153846153846,3.4
14,"test","congruent","blue","blue",87,"blue",1,1343,1,4.2,5.2,3.4,7,NA,0.333333333333333,1.66666666666667,4.22222222222222,4.46153846153846,3.4
14,"test","congruent","yellow","yellow",88,"yellow",1,819,1,4.2,5.2,3.4,7,NA,0.333333333333333,1.66666666666667,4.22222222222222,4.46153846153846,3.4
14,"test","incongruent","blue","red",89,"red",1,648,1,4.2,5.2,3.4,7,NA,0.333333333333333,1.66666666666667,4.22222222222222,4.46153846153846,3.4
14,"test","congruent","red","red",90,"red",1,702,1,4.2,5.2,3.4,7,NA,0.333333333333333,1.66666666666667,4.22222222222222,4.46153846153846,3.4
14,"test","congruent","yellow","yellow",91,"yellow",1,715,1,4.2,5.2,3.4,7,NA,0.333333333333333,1.66666666666667,4.22222222222222,4.46153846153846,3.4
14,"test","incongruent","blue","yellow",92,"yellow",1,651,1,4.2,5.2,3.4,7,NA,0.333333333333333,1.66666666666667,4.22222222222222,4.46153846153846,3.4
14,"test","congruent","blue","blue",93,"blue",1,813,1,4.2,5.2,3.4,7,NA,0.333333333333333,1.66666666666667,4.22222222222222,4.46153846153846,3.4
14,"test","congruent","yellow","yellow",94,"yellow",1,662,1,4.2,5.2,3.4,7,NA,0.333333333333333,1.66666666666667,4.22222222222222,4.46153846153846,3.4
14,"test","congruent","blue","blue",95,"blue",1,651,1,4.2,5.2,3.4,7,NA,0.333333333333333,1.66666666666667,4.22222222222222,4.46153846153846,3.4
14,"test","congruent","red","red",96,"red",1,595,1,4.2,5.2,3.4,7,NA,0.333333333333333,1.66666666666667,4.22222222222222,4.46153846153846,3.4
14,"test","congruent","red","red",97,"red",1,454,1,4.2,5.2,3.4,7,NA,0.333333333333333,1.66666666666667,4.22222222222222,4.46153846153846,3.4
14,"test","incongruent","red","blue",98,"blue",1,731,1,4.2,5.2,3.4,7,NA,0.333333333333333,1.66666666666667,4.22222222222222,4.46153846153846,3.4
14,"test","incongruent","blue","red",99,"red",1,832,1,4.2,5.2,3.4,7,NA,0.333333333333333,1.66666666666667,4.22222222222222,4.46153846153846,3.4
14,"test","congruent","red","red",100,"red",1,547,1,4.2,5.2,3.4,7,NA,0.333333333333333,1.66666666666667,4.22222222222222,4.46153846153846,3.4
14,"test","congruent","yellow","yellow",101,"yellow",1,565,1,4.2,5.2,3.4,7,NA,0.333333333333333,1.66666666666667,4.22222222222222,4.46153846153846,3.4
14,"test","congruent","red","red",102,"red",1,660,1,4.2,5.2,3.4,7,NA,0.333333333333333,1.66666666666667,4.22222222222222,4.46153846153846,3.4
14,"test","incongruent","yellow","blue",103,"blue",1,960,1,4.2,5.2,3.4,7,NA,0.333333333333333,1.66666666666667,4.22222222222222,4.46153846153846,3.4
14,"test","incongruent","yellow","red",104,"red",1,603,1,4.2,5.2,3.4,7,NA,0.333333333333333,1.66666666666667,4.22222222222222,4.46153846153846,3.4
14,"test","incongruent","red","yellow",105,"yellow",1,1122,1,4.2,5.2,3.4,7,NA,0.333333333333333,1.66666666666667,4.22222222222222,4.46153846153846,3.4
14,"test","congruent","yellow","yellow",106,"yellow",1,604,1,4.2,5.2,3.4,7,NA,0.333333333333333,1.66666666666667,4.22222222222222,4.46153846153846,3.4
14,"test","congruent","blue","blue",107,"blue",1,984,1,4.2,5.2,3.4,7,NA,0.333333333333333,1.66666666666667,4.22222222222222,4.46153846153846,3.4
14,"test","congruent","blue","blue",108,"blue",1,449,1,4.2,5.2,3.4,7,NA,0.333333333333333,1.66666666666667,4.22222222222222,4.46153846153846,3.4
14,"test","incongruent","blue","yellow",109,"blue",0,598,1,4.2,5.2,3.4,7,NA,0.333333333333333,1.66666666666667,4.22222222222222,4.46153846153846,3.4
14,"test","congruent","yellow","yellow",110,"yellow",1,1167,1,4.2,5.2,3.4,7,NA,0.333333333333333,1.66666666666667,4.22222222222222,4.46153846153846,3.4
14,"test","congruent","blue","blue",111,"blue",1,559,1,4.2,5.2,3.4,7,NA,0.333333333333333,1.66666666666667,4.22222222222222,4.46153846153846,3.4
14,"test","congruent","red","red",112,"red",1,584,1,4.2,5.2,3.4,7,NA,0.333333333333333,1.66666666666667,4.22222222222222,4.46153846153846,3.4
14,"test","congruent","blue","blue",113,"blue",1,710,1,4.2,5.2,3.4,7,NA,0.333333333333333,1.66666666666667,4.22222222222222,4.46153846153846,3.4
14,"test","incongruent","yellow","red",114,"red",1,921,1,4.2,5.2,3.4,7,NA,0.333333333333333,1.66666666666667,4.22222222222222,4.46153846153846,3.4
14,"test","congruent","red","red",115,"red",1,560,1,4.2,5.2,3.4,7,NA,0.333333333333333,1.66666666666667,4.22222222222222,4.46153846153846,3.4
14,"test","incongruent","yellow","blue",116,"blue",1,990,1,4.2,5.2,3.4,7,NA,0.333333333333333,1.66666666666667,4.22222222222222,4.46153846153846,3.4
14,"test","congruent","yellow","yellow",117,"yellow",1,461,1,4.2,5.2,3.4,7,NA,0.333333333333333,1.66666666666667,4.22222222222222,4.46153846153846,3.4
14,"test","congruent","yellow","yellow",118,"yellow",1,489,1,4.2,5.2,3.4,7,NA,0.333333333333333,1.66666666666667,4.22222222222222,4.46153846153846,3.4
14,"test","incongruent","blue","red",119,"red",1,760,1,4.2,5.2,3.4,7,NA,0.333333333333333,1.66666666666667,4.22222222222222,4.46153846153846,3.4
14,"test","congruent","blue","blue",120,"blue",1,477,1,4.2,5.2,3.4,7,NA,0.333333333333333,1.66666666666667,4.22222222222222,4.46153846153846,3.4
14,"test","congruent","red","red",121,"red",1,751,1,4.2,5.2,3.4,7,NA,0.333333333333333,1.66666666666667,4.22222222222222,4.46153846153846,3.4
14,"test","congruent","blue","blue",122,"blue",1,580,1,4.2,5.2,3.4,7,NA,0.333333333333333,1.66666666666667,4.22222222222222,4.46153846153846,3.4
14,"test","congruent","yellow","yellow",123,"yellow",1,891,1,4.2,5.2,3.4,7,NA,0.333333333333333,1.66666666666667,4.22222222222222,4.46153846153846,3.4
14,"test","incongruent","red","blue",124,"blue",1,1262,1,4.2,5.2,3.4,7,NA,0.333333333333333,1.66666666666667,4.22222222222222,4.46153846153846,3.4
14,"test","congruent","red","red",125,"red",1,711,1,4.2,5.2,3.4,7,NA,0.333333333333333,1.66666666666667,4.22222222222222,4.46153846153846,3.4
14,"test","incongruent","red","yellow",126,"yellow",1,988,1,4.2,5.2,3.4,7,NA,0.333333333333333,1.66666666666667,4.22222222222222,4.46153846153846,3.4
14,"test","incongruent","blue","yellow",127,"yellow",1,1033,1,4.2,5.2,3.4,7,NA,0.333333333333333,1.66666666666667,4.22222222222222,4.46153846153846,3.4
14,"test","incongruent","yellow","blue",128,"blue",1,1503,1,4.2,5.2,3.4,7,NA,0.333333333333333,1.66666666666667,4.22222222222222,4.46153846153846,3.4
14,"test","congruent","blue","blue",129,"blue",1,604,1,4.2,5.2,3.4,7,NA,0.333333333333333,1.66666666666667,4.22222222222222,4.46153846153846,3.4
14,"test","congruent","red","red",130,"red",1,615,1,4.2,5.2,3.4,7,NA,0.333333333333333,1.66666666666667,4.22222222222222,4.46153846153846,3.4
14,"test","congruent","blue","blue",131,"blue",1,782,1,4.2,5.2,3.4,7,NA,0.333333333333333,1.66666666666667,4.22222222222222,4.46153846153846,3.4
14,"test","congruent","yellow","yellow",132,"yellow",1,1591,1,4.2,5.2,3.4,7,NA,0.333333333333333,1.66666666666667,4.22222222222222,4.46153846153846,3.4
14,"test","congruent","red","red",133,"red",1,814,1,4.2,5.2,3.4,7,NA,0.333333333333333,1.66666666666667,4.22222222222222,4.46153846153846,3.4
14,"test","incongruent","blue","red",134,"red",1,1349,1,4.2,5.2,3.4,7,NA,0.333333333333333,1.66666666666667,4.22222222222222,4.46153846153846,3.4
14,"test","congruent","yellow","yellow",135,"yellow",1,871,1,4.2,5.2,3.4,7,NA,0.333333333333333,1.66666666666667,4.22222222222222,4.46153846153846,3.4
14,"test","congruent","yellow","yellow",136,"yellow",1,545,1,4.2,5.2,3.4,7,NA,0.333333333333333,1.66666666666667,4.22222222222222,4.46153846153846,3.4
14,"test","congruent","red","red",137,"red",1,742,1,4.2,5.2,3.4,7,NA,0.333333333333333,1.66666666666667,4.22222222222222,4.46153846153846,3.4
14,"test","congruent","blue","blue",138,"blue",1,422,1,4.2,5.2,3.4,7,NA,0.333333333333333,1.66666666666667,4.22222222222222,4.46153846153846,3.4
14,"test","congruent","blue","blue",139,"blue",1,715,1,4.2,5.2,3.4,7,NA,0.333333333333333,1.66666666666667,4.22222222222222,4.46153846153846,3.4
14,"test","congruent","red","red",140,"red",1,663,1,4.2,5.2,3.4,7,NA,0.333333333333333,1.66666666666667,4.22222222222222,4.46153846153846,3.4
14,"test","congruent","yellow","yellow",141,"yellow",1,513,1,4.2,5.2,3.4,7,NA,0.333333333333333,1.66666666666667,4.22222222222222,4.46153846153846,3.4
14,"test","incongruent","red","blue",142,"blue",1,526,1,4.2,5.2,3.4,7,NA,0.333333333333333,1.66666666666667,4.22222222222222,4.46153846153846,3.4
14,"test","incongruent","yellow","red",143,"red",1,893,1,4.2,5.2,3.4,7,NA,0.333333333333333,1.66666666666667,4.22222222222222,4.46153846153846,3.4
14,"test","incongruent","red","yellow",144,"yellow",1,694,1,4.2,5.2,3.4,7,NA,0.333333333333333,1.66666666666667,4.22222222222222,4.46153846153846,3.4
14,"test","congruent","red","red",145,"red",1,613,1,4.2,5.2,3.4,7,NA,0.333333333333333,1.66666666666667,4.22222222222222,4.46153846153846,3.4
14,"test","congruent","yellow","yellow",146,"yellow",1,592,1,4.2,5.2,3.4,7,NA,0.333333333333333,1.66666666666667,4.22222222222222,4.46153846153846,3.4
14,"test","incongruent","red","blue",147,"blue",1,377,1,4.2,5.2,3.4,7,NA,0.333333333333333,1.66666666666667,4.22222222222222,4.46153846153846,3.4
14,"test","incongruent","blue","yellow",148,"yellow",1,1001,1,4.2,5.2,3.4,7,NA,0.333333333333333,1.66666666666667,4.22222222222222,4.46153846153846,3.4
14,"test","congruent","red","red",149,"red",1,567,1,4.2,5.2,3.4,7,NA,0.333333333333333,1.66666666666667,4.22222222222222,4.46153846153846,3.4
14,"test","congruent","blue","blue",150,"yellow",0,864,1,4.2,5.2,3.4,7,NA,0.333333333333333,1.66666666666667,4.22222222222222,4.46153846153846,3.4
14,"test","incongruent","blue","red",151,"red",1,2092,1,4.2,5.2,3.4,7,NA,0.333333333333333,1.66666666666667,4.22222222222222,4.46153846153846,3.4
14,"test","congruent","blue","blue",152,"blue",1,1395,1,4.2,5.2,3.4,7,NA,0.333333333333333,1.66666666666667,4.22222222222222,4.46153846153846,3.4
14,"test","congruent","yellow","yellow",153,"yellow",1,1119,1,4.2,5.2,3.4,7,NA,0.333333333333333,1.66666666666667,4.22222222222222,4.46153846153846,3.4
14,"test","incongruent","yellow","blue",154,"blue",1,1569,1,4.2,5.2,3.4,7,NA,0.333333333333333,1.66666666666667,4.22222222222222,4.46153846153846,3.4
14,"test","congruent","blue","blue",155,"blue",1,543,1,4.2,5.2,3.4,7,NA,0.333333333333333,1.66666666666667,4.22222222222222,4.46153846153846,3.4
14,"test","congruent","blue","blue",156,"blue",1,431,1,4.2,5.2,3.4,7,NA,0.333333333333333,1.66666666666667,4.22222222222222,4.46153846153846,3.4
14,"test","incongruent","red","yellow",157,"yellow",1,1123,1,4.2,5.2,3.4,7,NA,0.333333333333333,1.66666666666667,4.22222222222222,4.46153846153846,3.4
14,"test","congruent","red","red",158,"red",1,679,1,4.2,5.2,3.4,7,NA,0.333333333333333,1.66666666666667,4.22222222222222,4.46153846153846,3.4
14,"test","congruent","yellow","yellow",159,"yellow",1,952,1,4.2,5.2,3.4,7,NA,0.333333333333333,1.66666666666667,4.22222222222222,4.46153846153846,3.4
14,"test","congruent","yellow","yellow",160,"yellow",1,1021,1,4.2,5.2,3.4,7,NA,0.333333333333333,1.66666666666667,4.22222222222222,4.46153846153846,3.4
14,"test","congruent","red","red",161,"red",1,1034,1,4.2,5.2,3.4,7,NA,0.333333333333333,1.66666666666667,4.22222222222222,4.46153846153846,3.4
14,"test","incongruent","yellow","red",162,"red",1,873,1,4.2,5.2,3.4,7,NA,0.333333333333333,1.66666666666667,4.22222222222222,4.46153846153846,3.4
14,"test","congruent","blue","blue",163,"blue",1,775,1,4.2,5.2,3.4,7,NA,0.333333333333333,1.66666666666667,4.22222222222222,4.46153846153846,3.4
14,"test","congruent","blue","blue",164,"blue",1,499,1,4.2,5.2,3.4,7,NA,0.333333333333333,1.66666666666667,4.22222222222222,4.46153846153846,3.4
14,"test","congruent","yellow","yellow",165,"yellow",1,821,1,4.2,5.2,3.4,7,NA,0.333333333333333,1.66666666666667,4.22222222222222,4.46153846153846,3.4
14,"test","incongruent","yellow","blue",166,"blue",1,1152,1,4.2,5.2,3.4,7,NA,0.333333333333333,1.66666666666667,4.22222222222222,4.46153846153846,3.4
14,"test","congruent","red","red",167,"red",1,667,1,4.2,5.2,3.4,7,NA,0.333333333333333,1.66666666666667,4.22222222222222,4.46153846153846,3.4
14,"test","incongruent","red","yellow",168,"yellow",1,766,1,4.2,5.2,3.4,7,NA,0.333333333333333,1.66666666666667,4.22222222222222,4.46153846153846,3.4
14,"test","congruent","red","red",169,"red",1,817,1,4.2,5.2,3.4,7,NA,0.333333333333333,1.66666666666667,4.22222222222222,4.46153846153846,3.4
14,"test","congruent","yellow","yellow",170,"yellow",1,815,1,4.2,5.2,3.4,7,NA,0.333333333333333,1.66666666666667,4.22222222222222,4.46153846153846,3.4
14,"test","incongruent","blue","red",171,"blue",0,750,1,4.2,5.2,3.4,7,NA,0.333333333333333,1.66666666666667,4.22222222222222,4.46153846153846,3.4
14,"test","congruent","blue","blue",172,"blue",1,808,1,4.2,5.2,3.4,7,NA,0.333333333333333,1.66666666666667,4.22222222222222,4.46153846153846,3.4
14,"test","incongruent","yellow","red",173,"red",1,942,1,4.2,5.2,3.4,7,NA,0.333333333333333,1.66666666666667,4.22222222222222,4.46153846153846,3.4
14,"test","congruent","red","red",174,"red",1,616,1,4.2,5.2,3.4,7,NA,0.333333333333333,1.66666666666667,4.22222222222222,4.46153846153846,3.4
14,"test","congruent","yellow","yellow",175,"yellow",1,1133,1,4.2,5.2,3.4,7,NA,0.333333333333333,1.66666666666667,4.22222222222222,4.46153846153846,3.4
14,"test","congruent","yellow","yellow",176,"yellow",1,511,1,4.2,5.2,3.4,7,NA,0.333333333333333,1.66666666666667,4.22222222222222,4.46153846153846,3.4
14,"test","incongruent","red","blue",177,"blue",1,1280,1,4.2,5.2,3.4,7,NA,0.333333333333333,1.66666666666667,4.22222222222222,4.46153846153846,3.4
14,"test","congruent","blue","blue",178,"blue",1,489,1,4.2,5.2,3.4,7,NA,0.333333333333333,1.66666666666667,4.22222222222222,4.46153846153846,3.4
14,"test","incongruent","blue","yellow",179,"yellow",1,1184,1,4.2,5.2,3.4,7,NA,0.333333333333333,1.66666666666667,4.22222222222222,4.46153846153846,3.4
14,"test","congruent","red","red",180,"blue",0,908,1,4.2,5.2,3.4,7,NA,0.333333333333333,1.66666666666667,4.22222222222222,4.46153846153846,3.4
