"pNo","condition","congruency","wordShown","correctResp","trialnum","resp","acc","rt","include","mentaldemand","effort","frustration","bored","fatigue","acs","implicitWillpower","bigFiveCon","bsc","srsq"
13,"control","congruent","red","red",1,"red",1,1215,1,2.5,2.9,1.5,3.3,1.4,0.583333333333333,3.66666666666667,3.88888888888889,2.92307692307692,3.4
13,"control","incongruent","blue","red",2,"red",1,1441,1,2.5,2.9,1.5,3.3,1.4,0.583333333333333,3.66666666666667,3.88888888888889,2.92307692307692,3.4
13,"control","congruent","red","red",3,"red",1,1024,1,2.5,2.9,1.5,3.3,1.4,0.583333333333333,3.66666666666667,3.88888888888889,2.92307692307692,3.4
13,"control","congruent","blue","blue",4,"blue",1,1848,1,2.5,2.9,1.5,3.3,1.4,0.583333333333333,3.66666666666667,3.88888888888889,2.92307692307692,3.4
13,"control","congruent","yellow","yellow",5,"yellow",1,647,1,2.5,2.9,1.5,3.3,1.4,0.583333333333333,3.66666666666667,3.88888888888889,2.92307692307692,3.4
13,"control","congruent","yellow","yellow",6,"yellow",1,582,1,2.5,2.9,1.5,3.3,1.4,0.583333333333333,3.66666666666667,3.88888888888889,2.92307692307692,3.4
13,"control","congruent","blue","blue",7,"blue",1,992,1,2.5,2.9,1.5,3.3,1.4,0.583333333333333,3.66666666666667,3.88888888888889,2.92307692307692,3.4
13,"control","incongruent","red","blue",8,"blue",1,1143,1,2.5,2.9,1.5,3.3,1.4,0.583333333333333,3.66666666666667,3.88888888888889,2.92307692307692,3.4
13,"control","incongruent","red","yellow",9,"yellow",1,1097,1,2.5,2.9,1.5,3.3,1.4,0.583333333333333,3.66666666666667,3.88888888888889,2.92307692307692,3.4
13,"control","congruent","blue","blue",10,"blue",1,810,1,2.5,2.9,1.5,3.3,1.4,0.583333333333333,3.66666666666667,3.88888888888889,2.92307692307692,3.4
13,"control","congruent","yellow","yellow",11,"yellow",1,949,1,2.5,2.9,1.5,3.3,1.4,0.583333333333333,3.66666666666667,3.88888888888889,2.92307692307692,3.4
13,"control","incongruent","yellow","red",12,"red",1,911,1,2.5,2.9,1.5,3.3,1.4,0.583333333333333,3.66666666666667,3.88888888888889,2.92307692307692,3.4
13,"control","congruent","blue","blue",13,"blue",1,641,1,2.5,2.9,1.5,3.3,1.4,0.583333333333333,3.66666666666667,3.88888888888889,2.92307692307692,3.4
13,"control","congruent","red","red",14,"red",1,1059,1,2.5,2.9,1.5,3.3,1.4,0.583333333333333,3.66666666666667,3.88888888888889,2.92307692307692,3.4
13,"control","incongruent","blue","yellow",15,"yellow",1,1082,1,2.5,2.9,1.5,3.3,1.4,0.583333333333333,3.66666666666667,3.88888888888889,2.92307692307692,3.4
13,"control","congruent","red","red",16,"red",1,888,1,2.5,2.9,1.5,3.3,1.4,0.583333333333333,3.66666666666667,3.88888888888889,2.92307692307692,3.4
13,"control","incongruent","yellow","blue",17,"blue",1,1040,1,2.5,2.9,1.5,3.3,1.4,0.583333333333333,3.66666666666667,3.88888888888889,2.92307692307692,3.4
13,"control","congruent","yellow","yellow",18,"yellow",1,1105,1,2.5,2.9,1.5,3.3,1.4,0.583333333333333,3.66666666666667,3.88888888888889,2.92307692307692,3.4
13,"control","congruent","red","red",19,"red",1,750,1,2.5,2.9,1.5,3.3,1.4,0.583333333333333,3.66666666666667,3.88888888888889,2.92307692307692,3.4
13,"control","incongruent","yellow","blue",20,"blue",1,580,1,2.5,2.9,1.5,3.3,1.4,0.583333333333333,3.66666666666667,3.88888888888889,2.92307692307692,3.4
13,"control","incongruent","blue","yellow",21,"yellow",1,963,1,2.5,2.9,1.5,3.3,1.4,0.583333333333333,3.66666666666667,3.88888888888889,2.92307692307692,3.4
13,"control","congruent","yellow","yellow",22,"yellow",1,915,1,2.5,2.9,1.5,3.3,1.4,0.583333333333333,3.66666666666667,3.88888888888889,2.92307692307692,3.4
13,"control","congruent","yellow","yellow",23,"yellow",1,540,1,2.5,2.9,1.5,3.3,1.4,0.583333333333333,3.66666666666667,3.88888888888889,2.92307692307692,3.4
13,"control","congruent","blue","blue",24,"blue",1,898,1,2.5,2.9,1.5,3.3,1.4,0.583333333333333,3.66666666666667,3.88888888888889,2.92307692307692,3.4
13,"control","congruent","red","red",25,"red",1,428,1,2.5,2.9,1.5,3.3,1.4,0.583333333333333,3.66666666666667,3.88888888888889,2.92307692307692,3.4
13,"control","incongruent","yellow","red",26,"red",1,863,1,2.5,2.9,1.5,3.3,1.4,0.583333333333333,3.66666666666667,3.88888888888889,2.92307692307692,3.4
13,"control","congruent","blue","blue",27,"blue",1,717,1,2.5,2.9,1.5,3.3,1.4,0.583333333333333,3.66666666666667,3.88888888888889,2.92307692307692,3.4
13,"control","congruent","red","red",28,"red",1,890,1,2.5,2.9,1.5,3.3,1.4,0.583333333333333,3.66666666666667,3.88888888888889,2.92307692307692,3.4
13,"control","incongruent","red","blue",29,"blue",1,851,1,2.5,2.9,1.5,3.3,1.4,0.583333333333333,3.66666666666667,3.88888888888889,2.92307692307692,3.4
13,"control","congruent","yellow","yellow",30,"yellow",1,620,1,2.5,2.9,1.5,3.3,1.4,0.583333333333333,3.66666666666667,3.88888888888889,2.92307692307692,3.4
13,"control","incongruent","blue","red",31,"blue",0,1077,1,2.5,2.9,1.5,3.3,1.4,0.583333333333333,3.66666666666667,3.88888888888889,2.92307692307692,3.4
13,"control","congruent","blue","blue",32,"blue",1,818,1,2.5,2.9,1.5,3.3,1.4,0.583333333333333,3.66666666666667,3.88888888888889,2.92307692307692,3.4
13,"control","congruent","yellow","yellow",33,"yellow",1,948,1,2.5,2.9,1.5,3.3,1.4,0.583333333333333,3.66666666666667,3.88888888888889,2.92307692307692,3.4
13,"control","congruent","blue","blue",34,"blue",1,831,1,2.5,2.9,1.5,3.3,1.4,0.583333333333333,3.66666666666667,3.88888888888889,2.92307692307692,3.4
13,"control","congruent","red","red",35,"red",1,818,1,2.5,2.9,1.5,3.3,1.4,0.583333333333333,3.66666666666667,3.88888888888889,2.92307692307692,3.4
13,"control","incongruent","red","yellow",36,"yellow",1,931,1,2.5,2.9,1.5,3.3,1.4,0.583333333333333,3.66666666666667,3.88888888888889,2.92307692307692,3.4
13,"control","congruent","yellow","yellow",37,"yellow",1,718,1,2.5,2.9,1.5,3.3,1.4,0.583333333333333,3.66666666666667,3.88888888888889,2.92307692307692,3.4
13,"control","incongruent","yellow","red",38,"red",1,734,1,2.5,2.9,1.5,3.3,1.4,0.583333333333333,3.66666666666667,3.88888888888889,2.92307692307692,3.4
13,"control","incongruent","red","yellow",39,"yellow",1,829,1,2.5,2.9,1.5,3.3,1.4,0.583333333333333,3.66666666666667,3.88888888888889,2.92307692307692,3.4
13,"control","congruent","blue","blue",40,"blue",1,721,1,2.5,2.9,1.5,3.3,1.4,0.583333333333333,3.66666666666667,3.88888888888889,2.92307692307692,3.4
13,"control","congruent","red","red",41,"red",1,557,1,2.5,2.9,1.5,3.3,1.4,0.583333333333333,3.66666666666667,3.88888888888889,2.92307692307692,3.4
13,"control","congruent","red","red",42,"red",1,843,1,2.5,2.9,1.5,3.3,1.4,0.583333333333333,3.66666666666667,3.88888888888889,2.92307692307692,3.4
13,"control","congruent","blue","blue",43,"blue",1,711,1,2.5,2.9,1.5,3.3,1.4,0.583333333333333,3.66666666666667,3.88888888888889,2.92307692307692,3.4
13,"control","incongruent","red","blue",44,"blue",1,916,1,2.5,2.9,1.5,3.3,1.4,0.583333333333333,3.66666666666667,3.88888888888889,2.92307692307692,3.4
13,"control","congruent","yellow","yellow",45,"yellow",1,539,1,2.5,2.9,1.5,3.3,1.4,0.583333333333333,3.66666666666667,3.88888888888889,2.92307692307692,3.4
13,"control","incongruent","blue","yellow",46,"yellow",1,1249,1,2.5,2.9,1.5,3.3,1.4,0.583333333333333,3.66666666666667,3.88888888888889,2.92307692307692,3.4
13,"control","incongruent","yellow","blue",47,"blue",1,861,1,2.5,2.9,1.5,3.3,1.4,0.583333333333333,3.66666666666667,3.88888888888889,2.92307692307692,3.4
13,"control","congruent","blue","blue",48,"blue",1,828,1,2.5,2.9,1.5,3.3,1.4,0.583333333333333,3.66666666666667,3.88888888888889,2.92307692307692,3.4
13,"control","congruent","yellow","yellow",49,"yellow",1,621,1,2.5,2.9,1.5,3.3,1.4,0.583333333333333,3.66666666666667,3.88888888888889,2.92307692307692,3.4
13,"control","congruent","red","red",50,"red",1,773,1,2.5,2.9,1.5,3.3,1.4,0.583333333333333,3.66666666666667,3.88888888888889,2.92307692307692,3.4
13,"control","incongruent","blue","red",51,"red",1,758,1,2.5,2.9,1.5,3.3,1.4,0.583333333333333,3.66666666666667,3.88888888888889,2.92307692307692,3.4
13,"control","congruent","red","red",52,"red",1,742,1,2.5,2.9,1.5,3.3,1.4,0.583333333333333,3.66666666666667,3.88888888888889,2.92307692307692,3.4
13,"control","congruent","blue","blue",53,"blue",1,614,1,2.5,2.9,1.5,3.3,1.4,0.583333333333333,3.66666666666667,3.88888888888889,2.92307692307692,3.4
13,"control","congruent","yellow","yellow",54,"yellow",1,555,1,2.5,2.9,1.5,3.3,1.4,0.583333333333333,3.66666666666667,3.88888888888889,2.92307692307692,3.4
13,"control","incongruent","blue","yellow",55,"yellow",1,941,1,2.5,2.9,1.5,3.3,1.4,0.583333333333333,3.66666666666667,3.88888888888889,2.92307692307692,3.4
13,"control","congruent","yellow","yellow",56,"yellow",1,725,1,2.5,2.9,1.5,3.3,1.4,0.583333333333333,3.66666666666667,3.88888888888889,2.92307692307692,3.4
13,"control","congruent","red","red",57,"red",1,581,1,2.5,2.9,1.5,3.3,1.4,0.583333333333333,3.66666666666667,3.88888888888889,2.92307692307692,3.4
13,"control","congruent","yellow","yellow",58,"yellow",1,754,1,2.5,2.9,1.5,3.3,1.4,0.583333333333333,3.66666666666667,3.88888888888889,2.92307692307692,3.4
13,"control","congruent","blue","blue",59,"blue",1,659,1,2.5,2.9,1.5,3.3,1.4,0.583333333333333,3.66666666666667,3.88888888888889,2.92307692307692,3.4
13,"control","congruent","blue","blue",60,"blue",1,710,1,2.5,2.9,1.5,3.3,1.4,0.583333333333333,3.66666666666667,3.88888888888889,2.92307692307692,3.4
13,"control","congruent","red","red",61,"red",1,956,1,2.5,2.9,1.5,3.3,1.4,0.583333333333333,3.66666666666667,3.88888888888889,2.92307692307692,3.4
13,"control","incongruent","yellow","red",62,"red",1,642,1,2.5,2.9,1.5,3.3,1.4,0.583333333333333,3.66666666666667,3.88888888888889,2.92307692307692,3.4
13,"control","incongruent","yellow","blue",63,"blue",1,725,1,2.5,2.9,1.5,3.3,1.4,0.583333333333333,3.66666666666667,3.88888888888889,2.92307692307692,3.4
13,"control","congruent","yellow","yellow",64,"yellow",1,474,1,2.5,2.9,1.5,3.3,1.4,0.583333333333333,3.66666666666667,3.88888888888889,2.92307692307692,3.4
13,"control","incongruent","red","blue",65,"blue",1,2075,1,2.5,2.9,1.5,3.3,1.4,0.583333333333333,3.66666666666667,3.88888888888889,2.92307692307692,3.4
13,"control","congruent","blue","blue",66,"blue",1,810,1,2.5,2.9,1.5,3.3,1.4,0.583333333333333,3.66666666666667,3.88888888888889,2.92307692307692,3.4
13,"control","incongruent","blue","red",67,"red",1,581,1,2.5,2.9,1.5,3.3,1.4,0.583333333333333,3.66666666666667,3.88888888888889,2.92307692307692,3.4
13,"control","congruent","blue","blue",68,"blue",1,750,1,2.5,2.9,1.5,3.3,1.4,0.583333333333333,3.66666666666667,3.88888888888889,2.92307692307692,3.4
13,"control","congruent","yellow","yellow",69,"yellow",1,519,1,2.5,2.9,1.5,3.3,1.4,0.583333333333333,3.66666666666667,3.88888888888889,2.92307692307692,3.4
13,"control","congruent","red","red",70,"red",1,624,1,2.5,2.9,1.5,3.3,1.4,0.583333333333333,3.66666666666667,3.88888888888889,2.92307692307692,3.4
13,"control","congruent","red","red",71,"red",1,611,1,2.5,2.9,1.5,3.3,1.4,0.583333333333333,3.66666666666667,3.88888888888889,2.92307692307692,3.4
13,"control","incongruent","red","yellow",72,"yellow",1,603,1,2.5,2.9,1.5,3.3,1.4,0.583333333333333,3.66666666666667,3.88888888888889,2.92307692307692,3.4
13,"control","congruent","blue","blue",73,"blue",1,427,1,2.5,2.9,1.5,3.3,1.4,0.583333333333333,3.66666666666667,3.88888888888889,2.92307692307692,3.4
13,"control","incongruent","blue","yellow",74,"yellow",1,738,1,2.5,2.9,1.5,3.3,1.4,0.583333333333333,3.66666666666667,3.88888888888889,2.92307692307692,3.4
13,"control","congruent","red","red",75,"red",1,421,1,2.5,2.9,1.5,3.3,1.4,0.583333333333333,3.66666666666667,3.88888888888889,2.92307692307692,3.4
13,"control","congruent","red","red",76,"red",1,609,1,2.5,2.9,1.5,3.3,1.4,0.583333333333333,3.66666666666667,3.88888888888889,2.92307692307692,3.4
13,"control","incongruent","yellow","red",77,"red",1,705,1,2.5,2.9,1.5,3.3,1.4,0.583333333333333,3.66666666666667,3.88888888888889,2.92307692307692,3.4
13,"control","incongruent","yellow","blue",78,"blue",1,789,1,2.5,2.9,1.5,3.3,1.4,0.583333333333333,3.66666666666667,3.88888888888889,2.92307692307692,3.4
13,"control","congruent","yellow","yellow",79,"yellow",1,529,1,2.5,2.9,1.5,3.3,1.4,0.583333333333333,3.66666666666667,3.88888888888889,2.92307692307692,3.4
13,"control","congruent","blue","blue",80,"blue",1,899,1,2.5,2.9,1.5,3.3,1.4,0.583333333333333,3.66666666666667,3.88888888888889,2.92307692307692,3.4
13,"control","congruent","yellow","yellow",81,"yellow",1,756,1,2.5,2.9,1.5,3.3,1.4,0.583333333333333,3.66666666666667,3.88888888888889,2.92307692307692,3.4
13,"control","congruent","blue","blue",82,"blue",1,849,1,2.5,2.9,1.5,3.3,1.4,0.583333333333333,3.66666666666667,3.88888888888889,2.92307692307692,3.4
13,"control","congruent","yellow","yellow",83,"yellow",1,685,1,2.5,2.9,1.5,3.3,1.4,0.583333333333333,3.66666666666667,3.88888888888889,2.92307692307692,3.4
13,"control","incongruent","red","blue",84,"blue",1,1003,1,2.5,2.9,1.5,3.3,1.4,0.583333333333333,3.66666666666667,3.88888888888889,2.92307692307692,3.4
13,"control","congruent","blue","blue",85,"blue",1,1046,1,2.5,2.9,1.5,3.3,1.4,0.583333333333333,3.66666666666667,3.88888888888889,2.92307692307692,3.4
13,"control","incongruent","red","yellow",86,"yellow",1,612,1,2.5,2.9,1.5,3.3,1.4,0.583333333333333,3.66666666666667,3.88888888888889,2.92307692307692,3.4
13,"control","congruent","yellow","yellow",87,"yellow",1,509,1,2.5,2.9,1.5,3.3,1.4,0.583333333333333,3.66666666666667,3.88888888888889,2.92307692307692,3.4
13,"control","incongruent","blue","red",88,"red",1,561,1,2.5,2.9,1.5,3.3,1.4,0.583333333333333,3.66666666666667,3.88888888888889,2.92307692307692,3.4
13,"control","congruent","red","red",89,"red",1,638,1,2.5,2.9,1.5,3.3,1.4,0.583333333333333,3.66666666666667,3.88888888888889,2.92307692307692,3.4
13,"control","congruent","red","red",90,"red",1,531,1,2.5,2.9,1.5,3.3,1.4,0.583333333333333,3.66666666666667,3.88888888888889,2.92307692307692,3.4
13,"control","congruent","red","red",91,"red",1,575,1,2.5,2.9,1.5,3.3,1.4,0.583333333333333,3.66666666666667,3.88888888888889,2.92307692307692,3.4
13,"control","incongruent","yellow","blue",92,"blue",1,597,1,2.5,2.9,1.5,3.3,1.4,0.583333333333333,3.66666666666667,3.88888888888889,2.92307692307692,3.4
13,"control","congruent","blue","blue",93,"blue",1,459,1,2.5,2.9,1.5,3.3,1.4,0.583333333333333,3.66666666666667,3.88888888888889,2.92307692307692,3.4
13,"control","congruent","yellow","yellow",94,"yellow",1,425,1,2.5,2.9,1.5,3.3,1.4,0.583333333333333,3.66666666666667,3.88888888888889,2.92307692307692,3.4
13,"control","incongruent","blue","red",95,"red",1,689,1,2.5,2.9,1.5,3.3,1.4,0.583333333333333,3.66666666666667,3.88888888888889,2.92307692307692,3.4
13,"control","congruent","yellow","yellow",96,"yellow",1,1015,1,2.5,2.9,1.5,3.3,1.4,0.583333333333333,3.66666666666667,3.88888888888889,2.92307692307692,3.4
13,"control","incongruent","red","yellow",97,"yellow",1,7089,1,2.5,2.9,1.5,3.3,1.4,0.583333333333333,3.66666666666667,3.88888888888889,2.92307692307692,3.4
13,"control","congruent","blue","blue",98,"blue",1,1350,1,2.5,2.9,1.5,3.3,1.4,0.583333333333333,3.66666666666667,3.88888888888889,2.92307692307692,3.4
13,"control","congruent","red","red",99,"red",1,588,1,2.5,2.9,1.5,3.3,1.4,0.583333333333333,3.66666666666667,3.88888888888889,2.92307692307692,3.4
13,"control","congruent","red","red",100,"red",1,577,1,2.5,2.9,1.5,3.3,1.4,0.583333333333333,3.66666666666667,3.88888888888889,2.92307692307692,3.4
13,"control","incongruent","blue","yellow",101,"yellow",1,866,1,2.5,2.9,1.5,3.3,1.4,0.583333333333333,3.66666666666667,3.88888888888889,2.92307692307692,3.4
13,"control","congruent","yellow","yellow",102,"yellow",1,542,1,2.5,2.9,1.5,3.3,1.4,0.583333333333333,3.66666666666667,3.88888888888889,2.92307692307692,3.4
13,"control","congruent","red","red",103,"red",1,546,1,2.5,2.9,1.5,3.3,1.4,0.583333333333333,3.66666666666667,3.88888888888889,2.92307692307692,3.4
13,"control","congruent","blue","blue",104,"blue",1,682,1,2.5,2.9,1.5,3.3,1.4,0.583333333333333,3.66666666666667,3.88888888888889,2.92307692307692,3.4
13,"control","incongruent","yellow","red",105,"red",1,532,1,2.5,2.9,1.5,3.3,1.4,0.583333333333333,3.66666666666667,3.88888888888889,2.92307692307692,3.4
13,"control","incongruent","red","blue",106,"blue",1,993,1,2.5,2.9,1.5,3.3,1.4,0.583333333333333,3.66666666666667,3.88888888888889,2.92307692307692,3.4
13,"control","congruent","blue","blue",107,"blue",1,534,1,2.5,2.9,1.5,3.3,1.4,0.583333333333333,3.66666666666667,3.88888888888889,2.92307692307692,3.4
13,"control","congruent","yellow","yellow",108,"yellow",1,624,1,2.5,2.9,1.5,3.3,1.4,0.583333333333333,3.66666666666667,3.88888888888889,2.92307692307692,3.4
13,"control","congruent","yellow","yellow",109,"yellow",1,724,1,2.5,2.9,1.5,3.3,1.4,0.583333333333333,3.66666666666667,3.88888888888889,2.92307692307692,3.4
13,"control","congruent","blue","blue",110,"blue",1,600,1,2.5,2.9,1.5,3.3,1.4,0.583333333333333,3.66666666666667,3.88888888888889,2.92307692307692,3.4
13,"control","incongruent","yellow","blue",111,"blue",1,460,1,2.5,2.9,1.5,3.3,1.4,0.583333333333333,3.66666666666667,3.88888888888889,2.92307692307692,3.4
13,"control","congruent","blue","blue",112,"blue",1,370,1,2.5,2.9,1.5,3.3,1.4,0.583333333333333,3.66666666666667,3.88888888888889,2.92307692307692,3.4
13,"control","incongruent","yellow","red",113,"red",1,421,1,2.5,2.9,1.5,3.3,1.4,0.583333333333333,3.66666666666667,3.88888888888889,2.92307692307692,3.4
13,"control","incongruent","red","yellow",114,"yellow",1,658,1,2.5,2.9,1.5,3.3,1.4,0.583333333333333,3.66666666666667,3.88888888888889,2.92307692307692,3.4
13,"control","congruent","red","red",115,"red",1,593,1,2.5,2.9,1.5,3.3,1.4,0.583333333333333,3.66666666666667,3.88888888888889,2.92307692307692,3.4
13,"control","congruent","yellow","yellow",116,"yellow",1,578,1,2.5,2.9,1.5,3.3,1.4,0.583333333333333,3.66666666666667,3.88888888888889,2.92307692307692,3.4
13,"control","congruent","red","red",117,"red",1,675,1,2.5,2.9,1.5,3.3,1.4,0.583333333333333,3.66666666666667,3.88888888888889,2.92307692307692,3.4
13,"control","congruent","yellow","yellow",118,"yellow",1,502,1,2.5,2.9,1.5,3.3,1.4,0.583333333333333,3.66666666666667,3.88888888888889,2.92307692307692,3.4
13,"control","congruent","red","red",119,"red",1,541,1,2.5,2.9,1.5,3.3,1.4,0.583333333333333,3.66666666666667,3.88888888888889,2.92307692307692,3.4
13,"control","congruent","blue","blue",120,"blue",1,1395,1,2.5,2.9,1.5,3.3,1.4,0.583333333333333,3.66666666666667,3.88888888888889,2.92307692307692,3.4
13,"control","congruent","blue","blue",121,"blue",1,609,1,2.5,2.9,1.5,3.3,1.4,0.583333333333333,3.66666666666667,3.88888888888889,2.92307692307692,3.4
13,"control","congruent","red","red",122,"red",1,672,1,2.5,2.9,1.5,3.3,1.4,0.583333333333333,3.66666666666667,3.88888888888889,2.92307692307692,3.4
13,"control","incongruent","red","blue",123,"blue",1,1157,1,2.5,2.9,1.5,3.3,1.4,0.583333333333333,3.66666666666667,3.88888888888889,2.92307692307692,3.4
13,"control","congruent","yellow","yellow",124,"yellow",1,1025,1,2.5,2.9,1.5,3.3,1.4,0.583333333333333,3.66666666666667,3.88888888888889,2.92307692307692,3.4
13,"control","incongruent","blue","red",125,"red",1,718,1,2.5,2.9,1.5,3.3,1.4,0.583333333333333,3.66666666666667,3.88888888888889,2.92307692307692,3.4
13,"control","incongruent","blue","yellow",126,"yellow",1,1202,1,2.5,2.9,1.5,3.3,1.4,0.583333333333333,3.66666666666667,3.88888888888889,2.92307692307692,3.4
13,"control","incongruent","yellow","red",127,"red",1,550,1,2.5,2.9,1.5,3.3,1.4,0.583333333333333,3.66666666666667,3.88888888888889,2.92307692307692,3.4
13,"control","incongruent","red","yellow",128,"yellow",1,608,1,2.5,2.9,1.5,3.3,1.4,0.583333333333333,3.66666666666667,3.88888888888889,2.92307692307692,3.4
13,"control","congruent","blue","blue",129,"blue",1,437,1,2.5,2.9,1.5,3.3,1.4,0.583333333333333,3.66666666666667,3.88888888888889,2.92307692307692,3.4
13,"control","congruent","red","red",130,"red",1,468,1,2.5,2.9,1.5,3.3,1.4,0.583333333333333,3.66666666666667,3.88888888888889,2.92307692307692,3.4
13,"control","incongruent","yellow","blue",131,"blue",1,483,1,2.5,2.9,1.5,3.3,1.4,0.583333333333333,3.66666666666667,3.88888888888889,2.92307692307692,3.4
13,"control","congruent","yellow","yellow",132,"yellow",1,425,1,2.5,2.9,1.5,3.3,1.4,0.583333333333333,3.66666666666667,3.88888888888889,2.92307692307692,3.4
13,"control","congruent","red","red",133,"red",1,547,1,2.5,2.9,1.5,3.3,1.4,0.583333333333333,3.66666666666667,3.88888888888889,2.92307692307692,3.4
13,"control","congruent","blue","blue",134,"blue",1,390,1,2.5,2.9,1.5,3.3,1.4,0.583333333333333,3.66666666666667,3.88888888888889,2.92307692307692,3.4
13,"control","congruent","yellow","yellow",135,"yellow",1,484,1,2.5,2.9,1.5,3.3,1.4,0.583333333333333,3.66666666666667,3.88888888888889,2.92307692307692,3.4
13,"control","incongruent","red","blue",136,"blue",1,1176,1,2.5,2.9,1.5,3.3,1.4,0.583333333333333,3.66666666666667,3.88888888888889,2.92307692307692,3.4
13,"control","congruent","blue","blue",137,"blue",1,716,1,2.5,2.9,1.5,3.3,1.4,0.583333333333333,3.66666666666667,3.88888888888889,2.92307692307692,3.4
13,"control","incongruent","blue","yellow",138,"yellow",1,670,1,2.5,2.9,1.5,3.3,1.4,0.583333333333333,3.66666666666667,3.88888888888889,2.92307692307692,3.4
13,"control","congruent","red","red",139,"red",1,351,1,2.5,2.9,1.5,3.3,1.4,0.583333333333333,3.66666666666667,3.88888888888889,2.92307692307692,3.4
13,"control","congruent","yellow","yellow",140,"yellow",1,523,1,2.5,2.9,1.5,3.3,1.4,0.583333333333333,3.66666666666667,3.88888888888889,2.92307692307692,3.4
13,"control","congruent","yellow","yellow",141,"yellow",1,548,1,2.5,2.9,1.5,3.3,1.4,0.583333333333333,3.66666666666667,3.88888888888889,2.92307692307692,3.4
13,"control","congruent","blue","blue",142,"red",0,259,1,2.5,2.9,1.5,3.3,1.4,0.583333333333333,3.66666666666667,3.88888888888889,2.92307692307692,3.4
13,"control","congruent","red","red",143,"blue",0,398,1,2.5,2.9,1.5,3.3,1.4,0.583333333333333,3.66666666666667,3.88888888888889,2.92307692307692,3.4
13,"control","incongruent","blue","red",144,"red",1,1224,1,2.5,2.9,1.5,3.3,1.4,0.583333333333333,3.66666666666667,3.88888888888889,2.92307692307692,3.4
13,"control","incongruent","blue","red",145,"red",1,1079,1,2.5,2.9,1.5,3.3,1.4,0.583333333333333,3.66666666666667,3.88888888888889,2.92307692307692,3.4
13,"control","incongruent","red","blue",146,"blue",1,724,1,2.5,2.9,1.5,3.3,1.4,0.583333333333333,3.66666666666667,3.88888888888889,2.92307692307692,3.4
13,"control","congruent","blue","blue",147,"blue",1,730,1,2.5,2.9,1.5,3.3,1.4,0.583333333333333,3.66666666666667,3.88888888888889,2.92307692307692,3.4
13,"control","incongruent","red","yellow",148,"yellow",1,761,1,2.5,2.9,1.5,3.3,1.4,0.583333333333333,3.66666666666667,3.88888888888889,2.92307692307692,3.4
13,"control","congruent","yellow","yellow",149,"yellow",1,600,1,2.5,2.9,1.5,3.3,1.4,0.583333333333333,3.66666666666667,3.88888888888889,2.92307692307692,3.4
13,"control","congruent","blue","blue",150,"blue",1,1006,1,2.5,2.9,1.5,3.3,1.4,0.583333333333333,3.66666666666667,3.88888888888889,2.92307692307692,3.4
13,"control","congruent","red","red",151,"red",1,581,1,2.5,2.9,1.5,3.3,1.4,0.583333333333333,3.66666666666667,3.88888888888889,2.92307692307692,3.4
13,"control","congruent","red","red",152,"red",1,446,1,2.5,2.9,1.5,3.3,1.4,0.583333333333333,3.66666666666667,3.88888888888889,2.92307692307692,3.4
13,"control","congruent","yellow","yellow",153,"yellow",1,539,1,2.5,2.9,1.5,3.3,1.4,0.583333333333333,3.66666666666667,3.88888888888889,2.92307692307692,3.4
13,"control","congruent","yellow","yellow",154,"yellow",1,639,1,2.5,2.9,1.5,3.3,1.4,0.583333333333333,3.66666666666667,3.88888888888889,2.92307692307692,3.4
13,"control","incongruent","yellow","red",155,"red",1,586,1,2.5,2.9,1.5,3.3,1.4,0.583333333333333,3.66666666666667,3.88888888888889,2.92307692307692,3.4
13,"control","congruent","yellow","yellow",156,"yellow",1,668,1,2.5,2.9,1.5,3.3,1.4,0.583333333333333,3.66666666666667,3.88888888888889,2.92307692307692,3.4
13,"control","incongruent","blue","yellow",157,"yellow",1,792,1,2.5,2.9,1.5,3.3,1.4,0.583333333333333,3.66666666666667,3.88888888888889,2.92307692307692,3.4
13,"control","congruent","blue","blue",158,"blue",1,763,1,2.5,2.9,1.5,3.3,1.4,0.583333333333333,3.66666666666667,3.88888888888889,2.92307692307692,3.4
13,"control","congruent","red","red",159,"red",1,532,1,2.5,2.9,1.5,3.3,1.4,0.583333333333333,3.66666666666667,3.88888888888889,2.92307692307692,3.4
13,"control","congruent","red","red",160,"red",1,516,1,2.5,2.9,1.5,3.3,1.4,0.583333333333333,3.66666666666667,3.88888888888889,2.92307692307692,3.4
13,"control","congruent","blue","blue",161,"blue",1,596,1,2.5,2.9,1.5,3.3,1.4,0.583333333333333,3.66666666666667,3.88888888888889,2.92307692307692,3.4
13,"control","incongruent","yellow","blue",162,"blue",1,633,1,2.5,2.9,1.5,3.3,1.4,0.583333333333333,3.66666666666667,3.88888888888889,2.92307692307692,3.4
13,"control","congruent","blue","blue",163,"blue",1,831,1,2.5,2.9,1.5,3.3,1.4,0.583333333333333,3.66666666666667,3.88888888888889,2.92307692307692,3.4
13,"control","incongruent","red","blue",164,"blue",1,526,1,2.5,2.9,1.5,3.3,1.4,0.583333333333333,3.66666666666667,3.88888888888889,2.92307692307692,3.4
13,"control","congruent","red","red",165,"red",1,611,1,2.5,2.9,1.5,3.3,1.4,0.583333333333333,3.66666666666667,3.88888888888889,2.92307692307692,3.4
13,"control","congruent","yellow","yellow",166,"yellow",1,398,1,2.5,2.9,1.5,3.3,1.4,0.583333333333333,3.66666666666667,3.88888888888889,2.92307692307692,3.4
13,"control","congruent","red","red",167,"red",1,815,1,2.5,2.9,1.5,3.3,1.4,0.583333333333333,3.66666666666667,3.88888888888889,2.92307692307692,3.4
13,"control","incongruent","red","yellow",168,"yellow",1,1293,1,2.5,2.9,1.5,3.3,1.4,0.583333333333333,3.66666666666667,3.88888888888889,2.92307692307692,3.4
13,"control","incongruent","blue","red",169,"red",1,914,1,2.5,2.9,1.5,3.3,1.4,0.583333333333333,3.66666666666667,3.88888888888889,2.92307692307692,3.4
13,"control","congruent","yellow","yellow",170,"yellow",1,816,1,2.5,2.9,1.5,3.3,1.4,0.583333333333333,3.66666666666667,3.88888888888889,2.92307692307692,3.4
13,"control","congruent","blue","blue",171,"blue",1,788,1,2.5,2.9,1.5,3.3,1.4,0.583333333333333,3.66666666666667,3.88888888888889,2.92307692307692,3.4
13,"control","congruent","blue","blue",172,"blue",1,685,1,2.5,2.9,1.5,3.3,1.4,0.583333333333333,3.66666666666667,3.88888888888889,2.92307692307692,3.4
13,"control","congruent","yellow","yellow",173,"yellow",1,1048,1,2.5,2.9,1.5,3.3,1.4,0.583333333333333,3.66666666666667,3.88888888888889,2.92307692307692,3.4
13,"control","congruent","red","red",174,"red",1,674,1,2.5,2.9,1.5,3.3,1.4,0.583333333333333,3.66666666666667,3.88888888888889,2.92307692307692,3.4
13,"control","incongruent","yellow","blue",175,"blue",1,1473,1,2.5,2.9,1.5,3.3,1.4,0.583333333333333,3.66666666666667,3.88888888888889,2.92307692307692,3.4
13,"control","congruent","blue","blue",176,"blue",1,552,1,2.5,2.9,1.5,3.3,1.4,0.583333333333333,3.66666666666667,3.88888888888889,2.92307692307692,3.4
13,"control","congruent","yellow","yellow",177,"yellow",1,741,1,2.5,2.9,1.5,3.3,1.4,0.583333333333333,3.66666666666667,3.88888888888889,2.92307692307692,3.4
13,"control","incongruent","blue","yellow",178,"yellow",1,588,1,2.5,2.9,1.5,3.3,1.4,0.583333333333333,3.66666666666667,3.88888888888889,2.92307692307692,3.4
13,"control","congruent","red","red",179,"red",1,594,1,2.5,2.9,1.5,3.3,1.4,0.583333333333333,3.66666666666667,3.88888888888889,2.92307692307692,3.4
13,"control","incongruent","yellow","red",180,"red",1,434,1,2.5,2.9,1.5,3.3,1.4,0.583333333333333,3.66666666666667,3.88888888888889,2.92307692307692,3.4
13,"test","incongruent","blue","red",1,"red",1,938,1,6.2,5.7,3.8,3.7,4.3,0.583333333333333,3.66666666666667,3.88888888888889,2.92307692307692,3.4
13,"test","congruent","red","red",2,"red",1,503,1,6.2,5.7,3.8,3.7,4.3,0.583333333333333,3.66666666666667,3.88888888888889,2.92307692307692,3.4
13,"test","incongruent","yellow","blue",3,"blue",1,504,1,6.2,5.7,3.8,3.7,4.3,0.583333333333333,3.66666666666667,3.88888888888889,2.92307692307692,3.4
13,"test","congruent","blue","blue",4,"blue",1,560,1,6.2,5.7,3.8,3.7,4.3,0.583333333333333,3.66666666666667,3.88888888888889,2.92307692307692,3.4
13,"test","congruent","yellow","yellow",5,"yellow",1,501,1,6.2,5.7,3.8,3.7,4.3,0.583333333333333,3.66666666666667,3.88888888888889,2.92307692307692,3.4
13,"test","congruent","yellow","yellow",6,"yellow",1,487,1,6.2,5.7,3.8,3.7,4.3,0.583333333333333,3.66666666666667,3.88888888888889,2.92307692307692,3.4
13,"test","incongruent","blue","yellow",7,"yellow",1,503,1,6.2,5.7,3.8,3.7,4.3,0.583333333333333,3.66666666666667,3.88888888888889,2.92307692307692,3.4
13,"test","congruent","red","red",8,"red",1,486,1,6.2,5.7,3.8,3.7,4.3,0.583333333333333,3.66666666666667,3.88888888888889,2.92307692307692,3.4
13,"test","congruent","blue","blue",9,"blue",1,486,1,6.2,5.7,3.8,3.7,4.3,0.583333333333333,3.66666666666667,3.88888888888889,2.92307692307692,3.4
13,"test","congruent","red","red",10,"red",1,525,1,6.2,5.7,3.8,3.7,4.3,0.583333333333333,3.66666666666667,3.88888888888889,2.92307692307692,3.4
13,"test","incongruent","red","blue",11,"blue",1,523,1,6.2,5.7,3.8,3.7,4.3,0.583333333333333,3.66666666666667,3.88888888888889,2.92307692307692,3.4
13,"test","congruent","blue","blue",12,"blue",1,683,1,6.2,5.7,3.8,3.7,4.3,0.583333333333333,3.66666666666667,3.88888888888889,2.92307692307692,3.4
13,"test","congruent","red","red",13,"red",1,468,1,6.2,5.7,3.8,3.7,4.3,0.583333333333333,3.66666666666667,3.88888888888889,2.92307692307692,3.4
13,"test","incongruent","yellow","red",14,"red",1,516,1,6.2,5.7,3.8,3.7,4.3,0.583333333333333,3.66666666666667,3.88888888888889,2.92307692307692,3.4
13,"test","congruent","blue","blue",15,"blue",1,578,1,6.2,5.7,3.8,3.7,4.3,0.583333333333333,3.66666666666667,3.88888888888889,2.92307692307692,3.4
13,"test","congruent","yellow","yellow",16,"yellow",1,823,1,6.2,5.7,3.8,3.7,4.3,0.583333333333333,3.66666666666667,3.88888888888889,2.92307692307692,3.4
13,"test","incongruent","red","yellow",17,"yellow",1,701,1,6.2,5.7,3.8,3.7,4.3,0.583333333333333,3.66666666666667,3.88888888888889,2.92307692307692,3.4
13,"test","congruent","yellow","yellow",18,"yellow",1,522,1,6.2,5.7,3.8,3.7,4.3,0.583333333333333,3.66666666666667,3.88888888888889,2.92307692307692,3.4
13,"test","incongruent","red","yellow",19,"yellow",1,664,1,6.2,5.7,3.8,3.7,4.3,0.583333333333333,3.66666666666667,3.88888888888889,2.92307692307692,3.4
13,"test","congruent","yellow","yellow",20,"yellow",1,562,1,6.2,5.7,3.8,3.7,4.3,0.583333333333333,3.66666666666667,3.88888888888889,2.92307692307692,3.4
13,"test","congruent","yellow","yellow",21,"yellow",1,526,1,6.2,5.7,3.8,3.7,4.3,0.583333333333333,3.66666666666667,3.88888888888889,2.92307692307692,3.4
13,"test","incongruent","red","blue",22,"blue",1,479,1,6.2,5.7,3.8,3.7,4.3,0.583333333333333,3.66666666666667,3.88888888888889,2.92307692307692,3.4
13,"test","congruent","red","red",23,"red",1,344,1,6.2,5.7,3.8,3.7,4.3,0.583333333333333,3.66666666666667,3.88888888888889,2.92307692307692,3.4
13,"test","congruent","blue","blue",24,"blue",1,677,1,6.2,5.7,3.8,3.7,4.3,0.583333333333333,3.66666666666667,3.88888888888889,2.92307692307692,3.4
13,"test","incongruent","blue","red",25,"yellow",0,879,1,6.2,5.7,3.8,3.7,4.3,0.583333333333333,3.66666666666667,3.88888888888889,2.92307692307692,3.4
13,"test","congruent","blue","blue",26,"blue",1,766,1,6.2,5.7,3.8,3.7,4.3,0.583333333333333,3.66666666666667,3.88888888888889,2.92307692307692,3.4
13,"test","congruent","red","red",27,"red",1,586,1,6.2,5.7,3.8,3.7,4.3,0.583333333333333,3.66666666666667,3.88888888888889,2.92307692307692,3.4
13,"test","congruent","yellow","yellow",28,"yellow",1,529,1,6.2,5.7,3.8,3.7,4.3,0.583333333333333,3.66666666666667,3.88888888888889,2.92307692307692,3.4
13,"test","congruent","blue","blue",29,"blue",1,403,1,6.2,5.7,3.8,3.7,4.3,0.583333333333333,3.66666666666667,3.88888888888889,2.92307692307692,3.4
13,"test","congruent","blue","blue",30,"blue",1,656,1,6.2,5.7,3.8,3.7,4.3,0.583333333333333,3.66666666666667,3.88888888888889,2.92307692307692,3.4
13,"test","incongruent","blue","yellow",31,"yellow",1,685,1,6.2,5.7,3.8,3.7,4.3,0.583333333333333,3.66666666666667,3.88888888888889,2.92307692307692,3.4
13,"test","incongruent","yellow","blue",32,"blue",1,1228,1,6.2,5.7,3.8,3.7,4.3,0.583333333333333,3.66666666666667,3.88888888888889,2.92307692307692,3.4
13,"test","congruent","yellow","yellow",33,"yellow",1,694,1,6.2,5.7,3.8,3.7,4.3,0.583333333333333,3.66666666666667,3.88888888888889,2.92307692307692,3.4
13,"test","congruent","red","red",34,"red",1,747,1,6.2,5.7,3.8,3.7,4.3,0.583333333333333,3.66666666666667,3.88888888888889,2.92307692307692,3.4
13,"test","congruent","red","red",35,"red",1,640,1,6.2,5.7,3.8,3.7,4.3,0.583333333333333,3.66666666666667,3.88888888888889,2.92307692307692,3.4
13,"test","incongruent","yellow","red",36,"red",1,772,1,6.2,5.7,3.8,3.7,4.3,0.583333333333333,3.66666666666667,3.88888888888889,2.92307692307692,3.4
13,"test","congruent","blue","blue",37,"blue",1,622,1,6.2,5.7,3.8,3.7,4.3,0.583333333333333,3.66666666666667,3.88888888888889,2.92307692307692,3.4
13,"test","congruent","red","red",38,"blue",0,627,1,6.2,5.7,3.8,3.7,4.3,0.583333333333333,3.66666666666667,3.88888888888889,2.92307692307692,3.4
13,"test","congruent","yellow","yellow",39,"yellow",1,666,1,6.2,5.7,3.8,3.7,4.3,0.583333333333333,3.66666666666667,3.88888888888889,2.92307692307692,3.4
13,"test","congruent","blue","blue",40,"blue",1,600,1,6.2,5.7,3.8,3.7,4.3,0.583333333333333,3.66666666666667,3.88888888888889,2.92307692307692,3.4
13,"test","incongruent","red","blue",41,"blue",1,474,1,6.2,5.7,3.8,3.7,4.3,0.583333333333333,3.66666666666667,3.88888888888889,2.92307692307692,3.4
13,"test","congruent","red","red",42,"red",1,471,1,6.2,5.7,3.8,3.7,4.3,0.583333333333333,3.66666666666667,3.88888888888889,2.92307692307692,3.4
13,"test","incongruent","blue","yellow",43,"blue",0,591,1,6.2,5.7,3.8,3.7,4.3,0.583333333333333,3.66666666666667,3.88888888888889,2.92307692307692,3.4
13,"test","incongruent","blue","red",44,"red",1,578,1,6.2,5.7,3.8,3.7,4.3,0.583333333333333,3.66666666666667,3.88888888888889,2.92307692307692,3.4
13,"test","congruent","yellow","yellow",45,"yellow",1,498,1,6.2,5.7,3.8,3.7,4.3,0.583333333333333,3.66666666666667,3.88888888888889,2.92307692307692,3.4
13,"test","congruent","yellow","yellow",46,"yellow",1,612,1,6.2,5.7,3.8,3.7,4.3,0.583333333333333,3.66666666666667,3.88888888888889,2.92307692307692,3.4
13,"test","incongruent","yellow","red",47,"red",1,776,1,6.2,5.7,3.8,3.7,4.3,0.583333333333333,3.66666666666667,3.88888888888889,2.92307692307692,3.4
13,"test","congruent","blue","blue",48,"blue",1,697,1,6.2,5.7,3.8,3.7,4.3,0.583333333333333,3.66666666666667,3.88888888888889,2.92307692307692,3.4
13,"test","congruent","red","red",49,"red",1,620,1,6.2,5.7,3.8,3.7,4.3,0.583333333333333,3.66666666666667,3.88888888888889,2.92307692307692,3.4
13,"test","incongruent","yellow","blue",50,"blue",1,430,1,6.2,5.7,3.8,3.7,4.3,0.583333333333333,3.66666666666667,3.88888888888889,2.92307692307692,3.4
13,"test","congruent","red","red",51,"red",1,678,1,6.2,5.7,3.8,3.7,4.3,0.583333333333333,3.66666666666667,3.88888888888889,2.92307692307692,3.4
13,"test","congruent","yellow","yellow",52,"yellow",1,532,1,6.2,5.7,3.8,3.7,4.3,0.583333333333333,3.66666666666667,3.88888888888889,2.92307692307692,3.4
13,"test","congruent","blue","blue",53,"blue",1,601,1,6.2,5.7,3.8,3.7,4.3,0.583333333333333,3.66666666666667,3.88888888888889,2.92307692307692,3.4
13,"test","incongruent","red","yellow",54,"red",0,710,1,6.2,5.7,3.8,3.7,4.3,0.583333333333333,3.66666666666667,3.88888888888889,2.92307692307692,3.4
13,"test","congruent","blue","blue",55,"blue",1,561,1,6.2,5.7,3.8,3.7,4.3,0.583333333333333,3.66666666666667,3.88888888888889,2.92307692307692,3.4
13,"test","congruent","red","red",56,"red",1,582,1,6.2,5.7,3.8,3.7,4.3,0.583333333333333,3.66666666666667,3.88888888888889,2.92307692307692,3.4
13,"test","incongruent","blue","yellow",57,"yellow",1,605,1,6.2,5.7,3.8,3.7,4.3,0.583333333333333,3.66666666666667,3.88888888888889,2.92307692307692,3.4
13,"test","congruent","yellow","yellow",58,"yellow",1,548,1,6.2,5.7,3.8,3.7,4.3,0.583333333333333,3.66666666666667,3.88888888888889,2.92307692307692,3.4
13,"test","congruent","blue","blue",59,"blue",1,718,1,6.2,5.7,3.8,3.7,4.3,0.583333333333333,3.66666666666667,3.88888888888889,2.92307692307692,3.4
13,"test","incongruent","yellow","red",60,"red",1,550,1,6.2,5.7,3.8,3.7,4.3,0.583333333333333,3.66666666666667,3.88888888888889,2.92307692307692,3.4
13,"test","incongruent","red","blue",61,"blue",1,748,1,6.2,5.7,3.8,3.7,4.3,0.583333333333333,3.66666666666667,3.88888888888889,2.92307692307692,3.4
13,"test","congruent","red","red",62,"red",1,940,1,6.2,5.7,3.8,3.7,4.3,0.583333333333333,3.66666666666667,3.88888888888889,2.92307692307692,3.4
13,"test","congruent","yellow","yellow",63,"yellow",1,620,1,6.2,5.7,3.8,3.7,4.3,0.583333333333333,3.66666666666667,3.88888888888889,2.92307692307692,3.4
13,"test","congruent","blue","blue",64,"blue",1,561,1,6.2,5.7,3.8,3.7,4.3,0.583333333333333,3.66666666666667,3.88888888888889,2.92307692307692,3.4
13,"test","congruent","red","red",65,"red",1,603,1,6.2,5.7,3.8,3.7,4.3,0.583333333333333,3.66666666666667,3.88888888888889,2.92307692307692,3.4
13,"test","incongruent","yellow","blue",66,"blue",1,608,1,6.2,5.7,3.8,3.7,4.3,0.583333333333333,3.66666666666667,3.88888888888889,2.92307692307692,3.4
13,"test","congruent","yellow","yellow",67,"yellow",1,640,1,6.2,5.7,3.8,3.7,4.3,0.583333333333333,3.66666666666667,3.88888888888889,2.92307692307692,3.4
13,"test","incongruent","blue","red",68,"red",1,550,1,6.2,5.7,3.8,3.7,4.3,0.583333333333333,3.66666666666667,3.88888888888889,2.92307692307692,3.4
13,"test","congruent","yellow","yellow",69,"yellow",1,1121,1,6.2,5.7,3.8,3.7,4.3,0.583333333333333,3.66666666666667,3.88888888888889,2.92307692307692,3.4
13,"test","congruent","red","red",70,"red",1,474,1,6.2,5.7,3.8,3.7,4.3,0.583333333333333,3.66666666666667,3.88888888888889,2.92307692307692,3.4
13,"test","congruent","blue","blue",71,"blue",1,571,1,6.2,5.7,3.8,3.7,4.3,0.583333333333333,3.66666666666667,3.88888888888889,2.92307692307692,3.4
13,"test","incongruent","red","yellow",72,"yellow",1,711,1,6.2,5.7,3.8,3.7,4.3,0.583333333333333,3.66666666666667,3.88888888888889,2.92307692307692,3.4
13,"test","congruent","yellow","yellow",73,"yellow",1,585,1,6.2,5.7,3.8,3.7,4.3,0.583333333333333,3.66666666666667,3.88888888888889,2.92307692307692,3.4
13,"test","incongruent","yellow","blue",74,"blue",1,534,1,6.2,5.7,3.8,3.7,4.3,0.583333333333333,3.66666666666667,3.88888888888889,2.92307692307692,3.4
13,"test","incongruent","blue","red",75,"red",1,391,1,6.2,5.7,3.8,3.7,4.3,0.583333333333333,3.66666666666667,3.88888888888889,2.92307692307692,3.4
13,"test","incongruent","blue","yellow",76,"yellow",1,821,1,6.2,5.7,3.8,3.7,4.3,0.583333333333333,3.66666666666667,3.88888888888889,2.92307692307692,3.4
13,"test","congruent","blue","blue",77,"blue",1,491,1,6.2,5.7,3.8,3.7,4.3,0.583333333333333,3.66666666666667,3.88888888888889,2.92307692307692,3.4
13,"test","congruent","blue","blue",78,"blue",1,520,1,6.2,5.7,3.8,3.7,4.3,0.583333333333333,3.66666666666667,3.88888888888889,2.92307692307692,3.4
13,"test","congruent","red","red",79,"red",1,550,1,6.2,5.7,3.8,3.7,4.3,0.583333333333333,3.66666666666667,3.88888888888889,2.92307692307692,3.4
13,"test","congruent","yellow","yellow",80,"yellow",1,741,1,6.2,5.7,3.8,3.7,4.3,0.583333333333333,3.66666666666667,3.88888888888889,2.92307692307692,3.4
13,"test","congruent","red","red",81,"red",1,525,1,6.2,5.7,3.8,3.7,4.3,0.583333333333333,3.66666666666667,3.88888888888889,2.92307692307692,3.4
13,"test","congruent","red","red",82,"red",1,629,1,6.2,5.7,3.8,3.7,4.3,0.583333333333333,3.66666666666667,3.88888888888889,2.92307692307692,3.4
13,"test","incongruent","red","yellow",83,"yellow",1,721,1,6.2,5.7,3.8,3.7,4.3,0.583333333333333,3.66666666666667,3.88888888888889,2.92307692307692,3.4
13,"test","incongruent","red","blue",84,"blue",1,405,1,6.2,5.7,3.8,3.7,4.3,0.583333333333333,3.66666666666667,3.88888888888889,2.92307692307692,3.4
13,"test","congruent","red","red",85,"red",1,369,1,6.2,5.7,3.8,3.7,4.3,0.583333333333333,3.66666666666667,3.88888888888889,2.92307692307692,3.4
13,"test","congruent","blue","blue",86,"blue",1,498,1,6.2,5.7,3.8,3.7,4.3,0.583333333333333,3.66666666666667,3.88888888888889,2.92307692307692,3.4
13,"test","congruent","blue","blue",87,"blue",1,573,1,6.2,5.7,3.8,3.7,4.3,0.583333333333333,3.66666666666667,3.88888888888889,2.92307692307692,3.4
13,"test","congruent","yellow","yellow",88,"yellow",1,537,1,6.2,5.7,3.8,3.7,4.3,0.583333333333333,3.66666666666667,3.88888888888889,2.92307692307692,3.4
13,"test","incongruent","yellow","red",89,"red",1,323,1,6.2,5.7,3.8,3.7,4.3,0.583333333333333,3.66666666666667,3.88888888888889,2.92307692307692,3.4
13,"test","congruent","yellow","yellow",90,"yellow",1,555,1,6.2,5.7,3.8,3.7,4.3,0.583333333333333,3.66666666666667,3.88888888888889,2.92307692307692,3.4
13,"test","congruent","blue","blue",91,"blue",1,561,1,6.2,5.7,3.8,3.7,4.3,0.583333333333333,3.66666666666667,3.88888888888889,2.92307692307692,3.4
13,"test","congruent","red","red",92,"red",1,344,1,6.2,5.7,3.8,3.7,4.3,0.583333333333333,3.66666666666667,3.88888888888889,2.92307692307692,3.4
13,"test","incongruent","red","blue",93,"blue",1,416,1,6.2,5.7,3.8,3.7,4.3,0.583333333333333,3.66666666666667,3.88888888888889,2.92307692307692,3.4
13,"test","incongruent","blue","red",94,"red",1,573,1,6.2,5.7,3.8,3.7,4.3,0.583333333333333,3.66666666666667,3.88888888888889,2.92307692307692,3.4
13,"test","congruent","red","red",95,"red",1,462,1,6.2,5.7,3.8,3.7,4.3,0.583333333333333,3.66666666666667,3.88888888888889,2.92307692307692,3.4
13,"test","congruent","blue","blue",96,"blue",1,546,1,6.2,5.7,3.8,3.7,4.3,0.583333333333333,3.66666666666667,3.88888888888889,2.92307692307692,3.4
13,"test","congruent","yellow","yellow",97,"blue",0,470,1,6.2,5.7,3.8,3.7,4.3,0.583333333333333,3.66666666666667,3.88888888888889,2.92307692307692,3.4
13,"test","incongruent","blue","yellow",98,"yellow",1,625,1,6.2,5.7,3.8,3.7,4.3,0.583333333333333,3.66666666666667,3.88888888888889,2.92307692307692,3.4
13,"test","congruent","yellow","yellow",99,"yellow",1,394,1,6.2,5.7,3.8,3.7,4.3,0.583333333333333,3.66666666666667,3.88888888888889,2.92307692307692,3.4
13,"test","congruent","red","red",100,"red",1,539,1,6.2,5.7,3.8,3.7,4.3,0.583333333333333,3.66666666666667,3.88888888888889,2.92307692307692,3.4
13,"test","congruent","blue","blue",101,"blue",1,597,1,6.2,5.7,3.8,3.7,4.3,0.583333333333333,3.66666666666667,3.88888888888889,2.92307692307692,3.4
13,"test","incongruent","yellow","red",102,"red",1,602,1,6.2,5.7,3.8,3.7,4.3,0.583333333333333,3.66666666666667,3.88888888888889,2.92307692307692,3.4
13,"test","congruent","yellow","yellow",103,"blue",0,617,1,6.2,5.7,3.8,3.7,4.3,0.583333333333333,3.66666666666667,3.88888888888889,2.92307692307692,3.4
13,"test","incongruent","yellow","blue",104,"blue",1,536,1,6.2,5.7,3.8,3.7,4.3,0.583333333333333,3.66666666666667,3.88888888888889,2.92307692307692,3.4
13,"test","congruent","yellow","yellow",105,"yellow",1,451,1,6.2,5.7,3.8,3.7,4.3,0.583333333333333,3.66666666666667,3.88888888888889,2.92307692307692,3.4
13,"test","congruent","red","red",106,"red",1,549,1,6.2,5.7,3.8,3.7,4.3,0.583333333333333,3.66666666666667,3.88888888888889,2.92307692307692,3.4
13,"test","incongruent","red","yellow",107,"yellow",1,513,1,6.2,5.7,3.8,3.7,4.3,0.583333333333333,3.66666666666667,3.88888888888889,2.92307692307692,3.4
13,"test","congruent","blue","blue",108,"blue",1,658,1,6.2,5.7,3.8,3.7,4.3,0.583333333333333,3.66666666666667,3.88888888888889,2.92307692307692,3.4
13,"test","incongruent","red","yellow",109,"yellow",1,1068,1,6.2,5.7,3.8,3.7,4.3,0.583333333333333,3.66666666666667,3.88888888888889,2.92307692307692,3.4
13,"test","congruent","red","red",110,"red",1,547,1,6.2,5.7,3.8,3.7,4.3,0.583333333333333,3.66666666666667,3.88888888888889,2.92307692307692,3.4
13,"test","congruent","yellow","yellow",111,"yellow",1,520,1,6.2,5.7,3.8,3.7,4.3,0.583333333333333,3.66666666666667,3.88888888888889,2.92307692307692,3.4
13,"test","incongruent","yellow","blue",112,"blue",1,377,1,6.2,5.7,3.8,3.7,4.3,0.583333333333333,3.66666666666667,3.88888888888889,2.92307692307692,3.4
13,"test","congruent","yellow","yellow",113,"yellow",1,510,1,6.2,5.7,3.8,3.7,4.3,0.583333333333333,3.66666666666667,3.88888888888889,2.92307692307692,3.4
13,"test","congruent","red","red",114,"red",1,592,1,6.2,5.7,3.8,3.7,4.3,0.583333333333333,3.66666666666667,3.88888888888889,2.92307692307692,3.4
13,"test","congruent","blue","blue",115,"blue",1,548,1,6.2,5.7,3.8,3.7,4.3,0.583333333333333,3.66666666666667,3.88888888888889,2.92307692307692,3.4
13,"test","incongruent","blue","red",116,"red",1,621,1,6.2,5.7,3.8,3.7,4.3,0.583333333333333,3.66666666666667,3.88888888888889,2.92307692307692,3.4
13,"test","congruent","blue","blue",117,"blue",1,458,1,6.2,5.7,3.8,3.7,4.3,0.583333333333333,3.66666666666667,3.88888888888889,2.92307692307692,3.4
13,"test","incongruent","red","blue",118,"blue",1,576,1,6.2,5.7,3.8,3.7,4.3,0.583333333333333,3.66666666666667,3.88888888888889,2.92307692307692,3.4
13,"test","congruent","blue","blue",119,"blue",1,363,1,6.2,5.7,3.8,3.7,4.3,0.583333333333333,3.66666666666667,3.88888888888889,2.92307692307692,3.4
13,"test","congruent","yellow","yellow",120,"yellow",1,627,1,6.2,5.7,3.8,3.7,4.3,0.583333333333333,3.66666666666667,3.88888888888889,2.92307692307692,3.4
13,"test","congruent","red","red",121,"red",1,608,1,6.2,5.7,3.8,3.7,4.3,0.583333333333333,3.66666666666667,3.88888888888889,2.92307692307692,3.4
13,"test","congruent","red","red",122,"red",1,593,1,6.2,5.7,3.8,3.7,4.3,0.583333333333333,3.66666666666667,3.88888888888889,2.92307692307692,3.4
13,"test","incongruent","yellow","red",123,"red",1,529,1,6.2,5.7,3.8,3.7,4.3,0.583333333333333,3.66666666666667,3.88888888888889,2.92307692307692,3.4
13,"test","congruent","blue","blue",124,"blue",1,435,1,6.2,5.7,3.8,3.7,4.3,0.583333333333333,3.66666666666667,3.88888888888889,2.92307692307692,3.4
13,"test","congruent","yellow","yellow",125,"yellow",1,478,1,6.2,5.7,3.8,3.7,4.3,0.583333333333333,3.66666666666667,3.88888888888889,2.92307692307692,3.4
13,"test","incongruent","blue","yellow",126,"yellow",1,572,1,6.2,5.7,3.8,3.7,4.3,0.583333333333333,3.66666666666667,3.88888888888889,2.92307692307692,3.4
13,"test","congruent","blue","blue",127,"blue",1,608,1,6.2,5.7,3.8,3.7,4.3,0.583333333333333,3.66666666666667,3.88888888888889,2.92307692307692,3.4
13,"test","incongruent","red","yellow",128,"yellow",1,966,1,6.2,5.7,3.8,3.7,4.3,0.583333333333333,3.66666666666667,3.88888888888889,2.92307692307692,3.4
13,"test","congruent","red","red",129,"red",1,631,1,6.2,5.7,3.8,3.7,4.3,0.583333333333333,3.66666666666667,3.88888888888889,2.92307692307692,3.4
13,"test","congruent","yellow","yellow",130,"yellow",1,588,1,6.2,5.7,3.8,3.7,4.3,0.583333333333333,3.66666666666667,3.88888888888889,2.92307692307692,3.4
13,"test","incongruent","red","blue",131,"blue",1,742,1,6.2,5.7,3.8,3.7,4.3,0.583333333333333,3.66666666666667,3.88888888888889,2.92307692307692,3.4
13,"test","congruent","red","red",132,"red",1,735,1,6.2,5.7,3.8,3.7,4.3,0.583333333333333,3.66666666666667,3.88888888888889,2.92307692307692,3.4
13,"test","incongruent","blue","red",133,"blue",0,1111,1,6.2,5.7,3.8,3.7,4.3,0.583333333333333,3.66666666666667,3.88888888888889,2.92307692307692,3.4
13,"test","congruent","yellow","yellow",134,"yellow",1,672,1,6.2,5.7,3.8,3.7,4.3,0.583333333333333,3.66666666666667,3.88888888888889,2.92307692307692,3.4
13,"test","congruent","blue","blue",135,"blue",1,697,1,6.2,5.7,3.8,3.7,4.3,0.583333333333333,3.66666666666667,3.88888888888889,2.92307692307692,3.4
13,"test","congruent","yellow","yellow",136,"yellow",1,768,1,6.2,5.7,3.8,3.7,4.3,0.583333333333333,3.66666666666667,3.88888888888889,2.92307692307692,3.4
13,"test","incongruent","blue","yellow",137,"yellow",1,1052,1,6.2,5.7,3.8,3.7,4.3,0.583333333333333,3.66666666666667,3.88888888888889,2.92307692307692,3.4
13,"test","congruent","blue","blue",138,"red",0,840,1,6.2,5.7,3.8,3.7,4.3,0.583333333333333,3.66666666666667,3.88888888888889,2.92307692307692,3.4
13,"test","congruent","blue","blue",139,"blue",1,768,1,6.2,5.7,3.8,3.7,4.3,0.583333333333333,3.66666666666667,3.88888888888889,2.92307692307692,3.4
13,"test","incongruent","yellow","blue",140,"blue",1,1051,1,6.2,5.7,3.8,3.7,4.3,0.583333333333333,3.66666666666667,3.88888888888889,2.92307692307692,3.4
13,"test","congruent","red","red",141,"red",1,775,1,6.2,5.7,3.8,3.7,4.3,0.583333333333333,3.66666666666667,3.88888888888889,2.92307692307692,3.4
13,"test","congruent","yellow","yellow",142,"yellow",1,802,1,6.2,5.7,3.8,3.7,4.3,0.583333333333333,3.66666666666667,3.88888888888889,2.92307692307692,3.4
13,"test","congruent","red","red",143,"red",1,800,1,6.2,5.7,3.8,3.7,4.3,0.583333333333333,3.66666666666667,3.88888888888889,2.92307692307692,3.4
13,"test","incongruent","yellow","red",144,"red",1,1264,1,6.2,5.7,3.8,3.7,4.3,0.583333333333333,3.66666666666667,3.88888888888889,2.92307692307692,3.4
13,"test","incongruent","blue","yellow",145,"blue",0,1413,1,6.2,5.7,3.8,3.7,4.3,0.583333333333333,3.66666666666667,3.88888888888889,2.92307692307692,3.4
13,"test","incongruent","red","blue",146,"blue",1,958,1,6.2,5.7,3.8,3.7,4.3,0.583333333333333,3.66666666666667,3.88888888888889,2.92307692307692,3.4
13,"test","congruent","red","red",147,"red",1,984,1,6.2,5.7,3.8,3.7,4.3,0.583333333333333,3.66666666666667,3.88888888888889,2.92307692307692,3.4
13,"test","congruent","yellow","yellow",148,"yellow",1,623,1,6.2,5.7,3.8,3.7,4.3,0.583333333333333,3.66666666666667,3.88888888888889,2.92307692307692,3.4
13,"test","congruent","red","red",149,"red",1,1117,1,6.2,5.7,3.8,3.7,4.3,0.583333333333333,3.66666666666667,3.88888888888889,2.92307692307692,3.4
13,"test","congruent","blue","blue",150,"blue",1,721,1,6.2,5.7,3.8,3.7,4.3,0.583333333333333,3.66666666666667,3.88888888888889,2.92307692307692,3.4
13,"test","incongruent","blue","red",151,"red",1,832,1,6.2,5.7,3.8,3.7,4.3,0.583333333333333,3.66666666666667,3.88888888888889,2.92307692307692,3.4
13,"test","congruent","blue","blue",152,"blue",1,900,1,6.2,5.7,3.8,3.7,4.3,0.583333333333333,3.66666666666667,3.88888888888889,2.92307692307692,3.4
13,"test","congruent","yellow","yellow",153,"yellow",1,864,1,6.2,5.7,3.8,3.7,4.3,0.583333333333333,3.66666666666667,3.88888888888889,2.92307692307692,3.4
13,"test","congruent","yellow","yellow",154,"yellow",1,1026,1,6.2,5.7,3.8,3.7,4.3,0.583333333333333,3.66666666666667,3.88888888888889,2.92307692307692,3.4
13,"test","congruent","blue","blue",155,"blue",1,707,1,6.2,5.7,3.8,3.7,4.3,0.583333333333333,3.66666666666667,3.88888888888889,2.92307692307692,3.4
13,"test","congruent","blue","blue",156,"blue",1,632,1,6.2,5.7,3.8,3.7,4.3,0.583333333333333,3.66666666666667,3.88888888888889,2.92307692307692,3.4
13,"test","incongruent","yellow","red",157,"red",1,650,1,6.2,5.7,3.8,3.7,4.3,0.583333333333333,3.66666666666667,3.88888888888889,2.92307692307692,3.4
13,"test","congruent","red","red",158,"red",1,601,1,6.2,5.7,3.8,3.7,4.3,0.583333333333333,3.66666666666667,3.88888888888889,2.92307692307692,3.4
13,"test","congruent","red","red",159,"red",1,658,1,6.2,5.7,3.8,3.7,4.3,0.583333333333333,3.66666666666667,3.88888888888889,2.92307692307692,3.4
13,"test","incongruent","yellow","blue",160,"blue",1,1392,1,6.2,5.7,3.8,3.7,4.3,0.583333333333333,3.66666666666667,3.88888888888889,2.92307692307692,3.4
13,"test","incongruent","red","yellow",161,"yellow",1,986,1,6.2,5.7,3.8,3.7,4.3,0.583333333333333,3.66666666666667,3.88888888888889,2.92307692307692,3.4
13,"test","congruent","yellow","yellow",162,"yellow",1,602,1,6.2,5.7,3.8,3.7,4.3,0.583333333333333,3.66666666666667,3.88888888888889,2.92307692307692,3.4
13,"test","congruent","yellow","yellow",163,"yellow",1,424,1,6.2,5.7,3.8,3.7,4.3,0.583333333333333,3.66666666666667,3.88888888888889,2.92307692307692,3.4
13,"test","congruent","red","red",164,"red",1,639,1,6.2,5.7,3.8,3.7,4.3,0.583333333333333,3.66666666666667,3.88888888888889,2.92307692307692,3.4
13,"test","congruent","blue","blue",165,"blue",1,774,1,6.2,5.7,3.8,3.7,4.3,0.583333333333333,3.66666666666667,3.88888888888889,2.92307692307692,3.4
13,"test","incongruent","red","yellow",166,"yellow",1,1064,1,6.2,5.7,3.8,3.7,4.3,0.583333333333333,3.66666666666667,3.88888888888889,2.92307692307692,3.4
13,"test","incongruent","yellow","blue",167,"blue",1,1068,1,6.2,5.7,3.8,3.7,4.3,0.583333333333333,3.66666666666667,3.88888888888889,2.92307692307692,3.4
13,"test","congruent","yellow","yellow",168,"yellow",1,1091,1,6.2,5.7,3.8,3.7,4.3,0.583333333333333,3.66666666666667,3.88888888888889,2.92307692307692,3.4
13,"test","congruent","red","red",169,"red",1,650,1,6.2,5.7,3.8,3.7,4.3,0.583333333333333,3.66666666666667,3.88888888888889,2.92307692307692,3.4
13,"test","incongruent","yellow","red",170,"red",1,987,1,6.2,5.7,3.8,3.7,4.3,0.583333333333333,3.66666666666667,3.88888888888889,2.92307692307692,3.4
13,"test","congruent","blue","blue",171,"blue",1,573,1,6.2,5.7,3.8,3.7,4.3,0.583333333333333,3.66666666666667,3.88888888888889,2.92307692307692,3.4
13,"test","congruent","blue","blue",172,"blue",1,557,1,6.2,5.7,3.8,3.7,4.3,0.583333333333333,3.66666666666667,3.88888888888889,2.92307692307692,3.4
13,"test","congruent","yellow","yellow",173,"yellow",1,709,1,6.2,5.7,3.8,3.7,4.3,0.583333333333333,3.66666666666667,3.88888888888889,2.92307692307692,3.4
13,"test","incongruent","red","blue",174,"blue",1,510,1,6.2,5.7,3.8,3.7,4.3,0.583333333333333,3.66666666666667,3.88888888888889,2.92307692307692,3.4
13,"test","congruent","red","red",175,"red",1,478,1,6.2,5.7,3.8,3.7,4.3,0.583333333333333,3.66666666666667,3.88888888888889,2.92307692307692,3.4
13,"test","incongruent","blue","red",176,"red",1,982,1,6.2,5.7,3.8,3.7,4.3,0.583333333333333,3.66666666666667,3.88888888888889,2.92307692307692,3.4
13,"test","congruent","blue","blue",177,"blue",1,682,1,6.2,5.7,3.8,3.7,4.3,0.583333333333333,3.66666666666667,3.88888888888889,2.92307692307692,3.4
13,"test","congruent","red","red",178,"red",1,797,1,6.2,5.7,3.8,3.7,4.3,0.583333333333333,3.66666666666667,3.88888888888889,2.92307692307692,3.4
13,"test","incongruent","blue","yellow",179,"yellow",1,672,1,6.2,5.7,3.8,3.7,4.3,0.583333333333333,3.66666666666667,3.88888888888889,2.92307692307692,3.4
13,"test","congruent","yellow","yellow",180,"yellow",1,645,1,6.2,5.7,3.8,3.7,4.3,0.583333333333333,3.66666666666667,3.88888888888889,2.92307692307692,3.4
