"pNo","condition","congruency","wordShown","correctResp","trialnum","resp","acc","rt","include","mentaldemand","effort","frustration","bored","fatigue","acs","implicitWillpower","bigFiveCon","bsc","srsq"
5,"control","incongruent","yellow","blue",1,"yellow",0,732,1,3.4,2.9,1.9,2.6,3.1,0,2.16666666666667,2.77777777777778,2.23076923076923,2.9
5,"control","congruent","blue","blue",2,"blue",1,922,1,3.4,2.9,1.9,2.6,3.1,0,2.16666666666667,2.77777777777778,2.23076923076923,2.9
5,"control","congruent","blue","blue",3,"blue",1,1594,1,3.4,2.9,1.9,2.6,3.1,0,2.16666666666667,2.77777777777778,2.23076923076923,2.9
5,"control","congruent","yellow","yellow",4,"yellow",1,670,1,3.4,2.9,1.9,2.6,3.1,0,2.16666666666667,2.77777777777778,2.23076923076923,2.9
5,"control","congruent","yellow","yellow",5,"yellow",1,811,1,3.4,2.9,1.9,2.6,3.1,0,2.16666666666667,2.77777777777778,2.23076923076923,2.9
5,"control","incongruent","blue","red",6,"red",1,1573,1,3.4,2.9,1.9,2.6,3.1,0,2.16666666666667,2.77777777777778,2.23076923076923,2.9
5,"control","congruent","red","red",7,"red",1,774,1,3.4,2.9,1.9,2.6,3.1,0,2.16666666666667,2.77777777777778,2.23076923076923,2.9
5,"control","incongruent","blue","yellow",8,"blue",0,1061,1,3.4,2.9,1.9,2.6,3.1,0,2.16666666666667,2.77777777777778,2.23076923076923,2.9
5,"control","congruent","red","red",9,"red",1,1162,1,3.4,2.9,1.9,2.6,3.1,0,2.16666666666667,2.77777777777778,2.23076923076923,2.9
5,"control","congruent","red","red",10,"red",1,1013,1,3.4,2.9,1.9,2.6,3.1,0,2.16666666666667,2.77777777777778,2.23076923076923,2.9
5,"control","incongruent","red","blue",11,"blue",1,1298,1,3.4,2.9,1.9,2.6,3.1,0,2.16666666666667,2.77777777777778,2.23076923076923,2.9
5,"control","incongruent","red","yellow",12,"yellow",1,662,1,3.4,2.9,1.9,2.6,3.1,0,2.16666666666667,2.77777777777778,2.23076923076923,2.9
5,"control","congruent","blue","blue",13,"blue",1,919,1,3.4,2.9,1.9,2.6,3.1,0,2.16666666666667,2.77777777777778,2.23076923076923,2.9
5,"control","congruent","blue","blue",14,"blue",1,773,1,3.4,2.9,1.9,2.6,3.1,0,2.16666666666667,2.77777777777778,2.23076923076923,2.9
5,"control","congruent","yellow","yellow",15,"yellow",1,802,1,3.4,2.9,1.9,2.6,3.1,0,2.16666666666667,2.77777777777778,2.23076923076923,2.9
5,"control","congruent","red","red",16,"red",1,841,1,3.4,2.9,1.9,2.6,3.1,0,2.16666666666667,2.77777777777778,2.23076923076923,2.9
5,"control","incongruent","yellow","red",17,"yellow",0,7823,1,3.4,2.9,1.9,2.6,3.1,0,2.16666666666667,2.77777777777778,2.23076923076923,2.9
5,"control","congruent","yellow","yellow",18,"yellow",1,1399,1,3.4,2.9,1.9,2.6,3.1,0,2.16666666666667,2.77777777777778,2.23076923076923,2.9
5,"control","congruent","red","red",19,"red",1,826,1,3.4,2.9,1.9,2.6,3.1,0,2.16666666666667,2.77777777777778,2.23076923076923,2.9
5,"control","congruent","blue","blue",20,"blue",1,713,1,3.4,2.9,1.9,2.6,3.1,0,2.16666666666667,2.77777777777778,2.23076923076923,2.9
5,"control","incongruent","yellow","red",21,"yellow",0,781,1,3.4,2.9,1.9,2.6,3.1,0,2.16666666666667,2.77777777777778,2.23076923076923,2.9
5,"control","incongruent","blue","yellow",22,"blue",0,1754,1,3.4,2.9,1.9,2.6,3.1,0,2.16666666666667,2.77777777777778,2.23076923076923,2.9
5,"control","congruent","red","red",23,"red",1,930,1,3.4,2.9,1.9,2.6,3.1,0,2.16666666666667,2.77777777777778,2.23076923076923,2.9
5,"control","congruent","yellow","yellow",24,"yellow",1,1395,1,3.4,2.9,1.9,2.6,3.1,0,2.16666666666667,2.77777777777778,2.23076923076923,2.9
5,"control","congruent","yellow","yellow",25,"yellow",1,680,1,3.4,2.9,1.9,2.6,3.1,0,2.16666666666667,2.77777777777778,2.23076923076923,2.9
5,"control","incongruent","red","blue",26,"blue",1,1524,1,3.4,2.9,1.9,2.6,3.1,0,2.16666666666667,2.77777777777778,2.23076923076923,2.9
5,"control","congruent","blue","blue",27,"blue",1,754,1,3.4,2.9,1.9,2.6,3.1,0,2.16666666666667,2.77777777777778,2.23076923076923,2.9
5,"control","congruent","red","red",28,"red",1,744,1,3.4,2.9,1.9,2.6,3.1,0,2.16666666666667,2.77777777777778,2.23076923076923,2.9
5,"control","congruent","blue","blue",29,"blue",1,848,1,3.4,2.9,1.9,2.6,3.1,0,2.16666666666667,2.77777777777778,2.23076923076923,2.9
5,"control","congruent","blue","blue",30,"blue",1,683,1,3.4,2.9,1.9,2.6,3.1,0,2.16666666666667,2.77777777777778,2.23076923076923,2.9
5,"control","incongruent","blue","red",31,"red",1,938,1,3.4,2.9,1.9,2.6,3.1,0,2.16666666666667,2.77777777777778,2.23076923076923,2.9
5,"control","congruent","yellow","yellow",32,"yellow",1,871,1,3.4,2.9,1.9,2.6,3.1,0,2.16666666666667,2.77777777777778,2.23076923076923,2.9
5,"control","incongruent","red","yellow",33,"yellow",1,1121,1,3.4,2.9,1.9,2.6,3.1,0,2.16666666666667,2.77777777777778,2.23076923076923,2.9
5,"control","congruent","red","red",34,"red",1,774,1,3.4,2.9,1.9,2.6,3.1,0,2.16666666666667,2.77777777777778,2.23076923076923,2.9
5,"control","incongruent","yellow","blue",35,"blue",1,4332,1,3.4,2.9,1.9,2.6,3.1,0,2.16666666666667,2.77777777777778,2.23076923076923,2.9
5,"control","congruent","yellow","yellow",36,"yellow",1,3245,1,3.4,2.9,1.9,2.6,3.1,0,2.16666666666667,2.77777777777778,2.23076923076923,2.9
5,"control","congruent","yellow","yellow",37,"yellow",1,647,1,3.4,2.9,1.9,2.6,3.1,0,2.16666666666667,2.77777777777778,2.23076923076923,2.9
5,"control","congruent","red","red",38,"red",1,761,1,3.4,2.9,1.9,2.6,3.1,0,2.16666666666667,2.77777777777778,2.23076923076923,2.9
5,"control","congruent","red","red",39,"red",1,1196,1,3.4,2.9,1.9,2.6,3.1,0,2.16666666666667,2.77777777777778,2.23076923076923,2.9
5,"control","congruent","blue","blue",40,"blue",1,1562,1,3.4,2.9,1.9,2.6,3.1,0,2.16666666666667,2.77777777777778,2.23076923076923,2.9
5,"control","incongruent","yellow","blue",41,"blue",1,619,1,3.4,2.9,1.9,2.6,3.1,0,2.16666666666667,2.77777777777778,2.23076923076923,2.9
5,"control","congruent","yellow","yellow",42,"yellow",1,752,1,3.4,2.9,1.9,2.6,3.1,0,2.16666666666667,2.77777777777778,2.23076923076923,2.9
5,"control","congruent","blue","blue",43,"blue",1,1626,1,3.4,2.9,1.9,2.6,3.1,0,2.16666666666667,2.77777777777778,2.23076923076923,2.9
5,"control","incongruent","blue","red",44,"red",1,735,1,3.4,2.9,1.9,2.6,3.1,0,2.16666666666667,2.77777777777778,2.23076923076923,2.9
5,"control","incongruent","red","yellow",45,"yellow",1,810,1,3.4,2.9,1.9,2.6,3.1,0,2.16666666666667,2.77777777777778,2.23076923076923,2.9
5,"control","congruent","red","red",46,"red",1,759,1,3.4,2.9,1.9,2.6,3.1,0,2.16666666666667,2.77777777777778,2.23076923076923,2.9
5,"control","congruent","blue","blue",47,"blue",1,664,1,3.4,2.9,1.9,2.6,3.1,0,2.16666666666667,2.77777777777778,2.23076923076923,2.9
5,"control","congruent","yellow","yellow",48,"yellow",1,660,1,3.4,2.9,1.9,2.6,3.1,0,2.16666666666667,2.77777777777778,2.23076923076923,2.9
5,"control","congruent","blue","blue",49,"blue",1,876,1,3.4,2.9,1.9,2.6,3.1,0,2.16666666666667,2.77777777777778,2.23076923076923,2.9
5,"control","incongruent","blue","yellow",50,"yellow",1,1122,1,3.4,2.9,1.9,2.6,3.1,0,2.16666666666667,2.77777777777778,2.23076923076923,2.9
5,"control","incongruent","red","blue",51,"blue",1,1208,1,3.4,2.9,1.9,2.6,3.1,0,2.16666666666667,2.77777777777778,2.23076923076923,2.9
5,"control","congruent","red","red",52,"red",1,900,1,3.4,2.9,1.9,2.6,3.1,0,2.16666666666667,2.77777777777778,2.23076923076923,2.9
5,"control","congruent","yellow","yellow",53,"yellow",1,4232,1,3.4,2.9,1.9,2.6,3.1,0,2.16666666666667,2.77777777777778,2.23076923076923,2.9
5,"control","incongruent","yellow","red",54,"red",1,1362,1,3.4,2.9,1.9,2.6,3.1,0,2.16666666666667,2.77777777777778,2.23076923076923,2.9
5,"control","incongruent","yellow","red",55,"red",1,888,1,3.4,2.9,1.9,2.6,3.1,0,2.16666666666667,2.77777777777778,2.23076923076923,2.9
5,"control","incongruent","red","blue",56,"red",0,2842,1,3.4,2.9,1.9,2.6,3.1,0,2.16666666666667,2.77777777777778,2.23076923076923,2.9
5,"control","congruent","yellow","yellow",57,"yellow",1,1332,1,3.4,2.9,1.9,2.6,3.1,0,2.16666666666667,2.77777777777778,2.23076923076923,2.9
5,"control","congruent","yellow","yellow",58,"yellow",1,706,1,3.4,2.9,1.9,2.6,3.1,0,2.16666666666667,2.77777777777778,2.23076923076923,2.9
5,"control","congruent","red","red",59,"red",1,794,1,3.4,2.9,1.9,2.6,3.1,0,2.16666666666667,2.77777777777778,2.23076923076923,2.9
5,"control","incongruent","red","yellow",60,"yellow",1,1686,1,3.4,2.9,1.9,2.6,3.1,0,2.16666666666667,2.77777777777778,2.23076923076923,2.9
5,"control","congruent","blue","blue",61,"blue",1,1154,1,3.4,2.9,1.9,2.6,3.1,0,2.16666666666667,2.77777777777778,2.23076923076923,2.9
5,"control","congruent","red","red",62,"red",1,1703,1,3.4,2.9,1.9,2.6,3.1,0,2.16666666666667,2.77777777777778,2.23076923076923,2.9
5,"control","congruent","blue","blue",63,"blue",1,1240,1,3.4,2.9,1.9,2.6,3.1,0,2.16666666666667,2.77777777777778,2.23076923076923,2.9
5,"control","congruent","red","red",64,"yellow",0,3210,1,3.4,2.9,1.9,2.6,3.1,0,2.16666666666667,2.77777777777778,2.23076923076923,2.9
5,"control","congruent","blue","blue",65,"blue",1,1755,1,3.4,2.9,1.9,2.6,3.1,0,2.16666666666667,2.77777777777778,2.23076923076923,2.9
5,"control","congruent","blue","blue",66,"blue",1,721,1,3.4,2.9,1.9,2.6,3.1,0,2.16666666666667,2.77777777777778,2.23076923076923,2.9
5,"control","congruent","red","red",67,"red",1,1073,1,3.4,2.9,1.9,2.6,3.1,0,2.16666666666667,2.77777777777778,2.23076923076923,2.9
5,"control","incongruent","blue","yellow",68,"yellow",1,1330,1,3.4,2.9,1.9,2.6,3.1,0,2.16666666666667,2.77777777777778,2.23076923076923,2.9
5,"control","incongruent","yellow","blue",69,"blue",1,1000,1,3.4,2.9,1.9,2.6,3.1,0,2.16666666666667,2.77777777777778,2.23076923076923,2.9
5,"control","congruent","yellow","yellow",70,"yellow",1,845,1,3.4,2.9,1.9,2.6,3.1,0,2.16666666666667,2.77777777777778,2.23076923076923,2.9
5,"control","incongruent","blue","red",71,"red",1,827,1,3.4,2.9,1.9,2.6,3.1,0,2.16666666666667,2.77777777777778,2.23076923076923,2.9
5,"control","congruent","yellow","yellow",72,"yellow",1,755,1,3.4,2.9,1.9,2.6,3.1,0,2.16666666666667,2.77777777777778,2.23076923076923,2.9
5,"control","congruent","yellow","yellow",73,"yellow",1,533,1,3.4,2.9,1.9,2.6,3.1,0,2.16666666666667,2.77777777777778,2.23076923076923,2.9
5,"control","incongruent","yellow","blue",74,"blue",1,1342,1,3.4,2.9,1.9,2.6,3.1,0,2.16666666666667,2.77777777777778,2.23076923076923,2.9
5,"control","congruent","blue","blue",75,"blue",1,781,1,3.4,2.9,1.9,2.6,3.1,0,2.16666666666667,2.77777777777778,2.23076923076923,2.9
5,"control","incongruent","blue","yellow",76,"yellow",1,899,1,3.4,2.9,1.9,2.6,3.1,0,2.16666666666667,2.77777777777778,2.23076923076923,2.9
5,"control","congruent","blue","blue",77,"blue",1,822,1,3.4,2.9,1.9,2.6,3.1,0,2.16666666666667,2.77777777777778,2.23076923076923,2.9
5,"control","congruent","red","red",78,"red",1,1145,1,3.4,2.9,1.9,2.6,3.1,0,2.16666666666667,2.77777777777778,2.23076923076923,2.9
5,"control","congruent","red","red",79,"red",1,723,1,3.4,2.9,1.9,2.6,3.1,0,2.16666666666667,2.77777777777778,2.23076923076923,2.9
5,"control","congruent","yellow","yellow",80,"yellow",1,1540,1,3.4,2.9,1.9,2.6,3.1,0,2.16666666666667,2.77777777777778,2.23076923076923,2.9
5,"control","incongruent","blue","red",81,"red",1,842,1,3.4,2.9,1.9,2.6,3.1,0,2.16666666666667,2.77777777777778,2.23076923076923,2.9
5,"control","congruent","blue","blue",82,"blue",1,1454,1,3.4,2.9,1.9,2.6,3.1,0,2.16666666666667,2.77777777777778,2.23076923076923,2.9
5,"control","congruent","red","red",83,"red",1,629,1,3.4,2.9,1.9,2.6,3.1,0,2.16666666666667,2.77777777777778,2.23076923076923,2.9
5,"control","congruent","yellow","yellow",84,"yellow",1,822,1,3.4,2.9,1.9,2.6,3.1,0,2.16666666666667,2.77777777777778,2.23076923076923,2.9
5,"control","incongruent","yellow","red",85,"red",1,902,1,3.4,2.9,1.9,2.6,3.1,0,2.16666666666667,2.77777777777778,2.23076923076923,2.9
5,"control","congruent","blue","blue",86,"blue",1,955,1,3.4,2.9,1.9,2.6,3.1,0,2.16666666666667,2.77777777777778,2.23076923076923,2.9
5,"control","congruent","yellow","yellow",87,"yellow",1,576,1,3.4,2.9,1.9,2.6,3.1,0,2.16666666666667,2.77777777777778,2.23076923076923,2.9
5,"control","incongruent","red","yellow",88,"red",0,1516,1,3.4,2.9,1.9,2.6,3.1,0,2.16666666666667,2.77777777777778,2.23076923076923,2.9
5,"control","incongruent","red","blue",89,"blue",1,5752,1,3.4,2.9,1.9,2.6,3.1,0,2.16666666666667,2.77777777777778,2.23076923076923,2.9
5,"control","congruent","red","red",90,"red",1,1398,1,3.4,2.9,1.9,2.6,3.1,0,2.16666666666667,2.77777777777778,2.23076923076923,2.9
5,"control","congruent","yellow","yellow",91,"yellow",1,946,1,3.4,2.9,1.9,2.6,3.1,0,2.16666666666667,2.77777777777778,2.23076923076923,2.9
5,"control","incongruent","yellow","blue",92,"blue",1,1108,1,3.4,2.9,1.9,2.6,3.1,0,2.16666666666667,2.77777777777778,2.23076923076923,2.9
5,"control","congruent","red","red",93,"red",1,1549,1,3.4,2.9,1.9,2.6,3.1,0,2.16666666666667,2.77777777777778,2.23076923076923,2.9
5,"control","incongruent","blue","yellow",94,"yellow",1,795,1,3.4,2.9,1.9,2.6,3.1,0,2.16666666666667,2.77777777777778,2.23076923076923,2.9
5,"control","congruent","red","red",95,"red",1,1089,1,3.4,2.9,1.9,2.6,3.1,0,2.16666666666667,2.77777777777778,2.23076923076923,2.9
5,"control","congruent","blue","blue",96,"blue",1,797,1,3.4,2.9,1.9,2.6,3.1,0,2.16666666666667,2.77777777777778,2.23076923076923,2.9
5,"control","incongruent","blue","red",97,"red",1,825,1,3.4,2.9,1.9,2.6,3.1,0,2.16666666666667,2.77777777777778,2.23076923076923,2.9
5,"control","congruent","blue","blue",98,"blue",1,1631,1,3.4,2.9,1.9,2.6,3.1,0,2.16666666666667,2.77777777777778,2.23076923076923,2.9
5,"control","congruent","yellow","yellow",99,"yellow",1,943,1,3.4,2.9,1.9,2.6,3.1,0,2.16666666666667,2.77777777777778,2.23076923076923,2.9
5,"control","incongruent","red","blue",100,"red",0,1042,1,3.4,2.9,1.9,2.6,3.1,0,2.16666666666667,2.77777777777778,2.23076923076923,2.9
5,"control","congruent","blue","blue",101,"blue",1,2157,1,3.4,2.9,1.9,2.6,3.1,0,2.16666666666667,2.77777777777778,2.23076923076923,2.9
5,"control","incongruent","yellow","red",102,"red",1,1328,1,3.4,2.9,1.9,2.6,3.1,0,2.16666666666667,2.77777777777778,2.23076923076923,2.9
5,"control","congruent","blue","blue",103,"blue",1,1079,1,3.4,2.9,1.9,2.6,3.1,0,2.16666666666667,2.77777777777778,2.23076923076923,2.9
5,"control","congruent","yellow","yellow",104,"yellow",1,744,1,3.4,2.9,1.9,2.6,3.1,0,2.16666666666667,2.77777777777778,2.23076923076923,2.9
5,"control","congruent","red","red",105,"red",1,749,1,3.4,2.9,1.9,2.6,3.1,0,2.16666666666667,2.77777777777778,2.23076923076923,2.9
5,"control","incongruent","red","yellow",106,"yellow",1,900,1,3.4,2.9,1.9,2.6,3.1,0,2.16666666666667,2.77777777777778,2.23076923076923,2.9
5,"control","congruent","yellow","yellow",107,"yellow",1,781,1,3.4,2.9,1.9,2.6,3.1,0,2.16666666666667,2.77777777777778,2.23076923076923,2.9
5,"control","congruent","red","red",108,"red",1,706,1,3.4,2.9,1.9,2.6,3.1,0,2.16666666666667,2.77777777777778,2.23076923076923,2.9
5,"control","congruent","blue","blue",109,"blue",1,805,1,3.4,2.9,1.9,2.6,3.1,0,2.16666666666667,2.77777777777778,2.23076923076923,2.9
5,"control","congruent","red","red",110,"red",1,712,1,3.4,2.9,1.9,2.6,3.1,0,2.16666666666667,2.77777777777778,2.23076923076923,2.9
5,"control","congruent","red","red",111,"red",1,603,1,3.4,2.9,1.9,2.6,3.1,0,2.16666666666667,2.77777777777778,2.23076923076923,2.9
5,"control","congruent","blue","blue",112,"blue",1,919,1,3.4,2.9,1.9,2.6,3.1,0,2.16666666666667,2.77777777777778,2.23076923076923,2.9
5,"control","incongruent","red","yellow",113,"yellow",1,994,1,3.4,2.9,1.9,2.6,3.1,0,2.16666666666667,2.77777777777778,2.23076923076923,2.9
5,"control","congruent","yellow","yellow",114,"yellow",1,831,1,3.4,2.9,1.9,2.6,3.1,0,2.16666666666667,2.77777777777778,2.23076923076923,2.9
5,"control","incongruent","red","blue",115,"blue",1,1005,1,3.4,2.9,1.9,2.6,3.1,0,2.16666666666667,2.77777777777778,2.23076923076923,2.9
5,"control","incongruent","yellow","red",116,"red",1,1245,1,3.4,2.9,1.9,2.6,3.1,0,2.16666666666667,2.77777777777778,2.23076923076923,2.9
5,"control","congruent","yellow","yellow",117,"yellow",1,971,1,3.4,2.9,1.9,2.6,3.1,0,2.16666666666667,2.77777777777778,2.23076923076923,2.9
5,"control","congruent","red","red",118,"red",1,654,1,3.4,2.9,1.9,2.6,3.1,0,2.16666666666667,2.77777777777778,2.23076923076923,2.9
5,"control","congruent","yellow","yellow",119,"yellow",1,698,1,3.4,2.9,1.9,2.6,3.1,0,2.16666666666667,2.77777777777778,2.23076923076923,2.9
5,"control","congruent","blue","blue",120,"blue",1,848,1,3.4,2.9,1.9,2.6,3.1,0,2.16666666666667,2.77777777777778,2.23076923076923,2.9
5,"control","congruent","yellow","yellow",121,"yellow",1,737,1,3.4,2.9,1.9,2.6,3.1,0,2.16666666666667,2.77777777777778,2.23076923076923,2.9
5,"control","incongruent","yellow","blue",122,"blue",1,909,1,3.4,2.9,1.9,2.6,3.1,0,2.16666666666667,2.77777777777778,2.23076923076923,2.9
5,"control","congruent","red","red",123,"red",1,774,1,3.4,2.9,1.9,2.6,3.1,0,2.16666666666667,2.77777777777778,2.23076923076923,2.9
5,"control","congruent","blue","blue",124,"blue",1,795,1,3.4,2.9,1.9,2.6,3.1,0,2.16666666666667,2.77777777777778,2.23076923076923,2.9
5,"control","incongruent","blue","yellow",125,"yellow",1,745,1,3.4,2.9,1.9,2.6,3.1,0,2.16666666666667,2.77777777777778,2.23076923076923,2.9
5,"control","incongruent","blue","red",126,"red",1,1010,1,3.4,2.9,1.9,2.6,3.1,0,2.16666666666667,2.77777777777778,2.23076923076923,2.9
5,"control","incongruent","yellow","red",127,"red",1,1063,1,3.4,2.9,1.9,2.6,3.1,0,2.16666666666667,2.77777777777778,2.23076923076923,2.9
5,"control","congruent","blue","blue",128,"blue",1,3365,1,3.4,2.9,1.9,2.6,3.1,0,2.16666666666667,2.77777777777778,2.23076923076923,2.9
5,"control","congruent","red","red",129,"red",1,728,1,3.4,2.9,1.9,2.6,3.1,0,2.16666666666667,2.77777777777778,2.23076923076923,2.9
5,"control","congruent","yellow","yellow",130,"yellow",1,783,1,3.4,2.9,1.9,2.6,3.1,0,2.16666666666667,2.77777777777778,2.23076923076923,2.9
5,"control","incongruent","red","blue",131,"blue",1,1164,1,3.4,2.9,1.9,2.6,3.1,0,2.16666666666667,2.77777777777778,2.23076923076923,2.9
5,"control","congruent","yellow","yellow",132,"red",0,845,1,3.4,2.9,1.9,2.6,3.1,0,2.16666666666667,2.77777777777778,2.23076923076923,2.9
5,"control","congruent","red","red",133,"red",1,1097,1,3.4,2.9,1.9,2.6,3.1,0,2.16666666666667,2.77777777777778,2.23076923076923,2.9
5,"control","incongruent","red","yellow",134,"yellow",1,1615,1,3.4,2.9,1.9,2.6,3.1,0,2.16666666666667,2.77777777777778,2.23076923076923,2.9
5,"control","congruent","blue","blue",135,"blue",1,769,1,3.4,2.9,1.9,2.6,3.1,0,2.16666666666667,2.77777777777778,2.23076923076923,2.9
5,"control","incongruent","blue","red",136,"red",1,755,1,3.4,2.9,1.9,2.6,3.1,0,2.16666666666667,2.77777777777778,2.23076923076923,2.9
5,"control","congruent","yellow","yellow",137,"yellow",1,515,1,3.4,2.9,1.9,2.6,3.1,0,2.16666666666667,2.77777777777778,2.23076923076923,2.9
5,"control","incongruent","yellow","blue",138,"blue",1,700,1,3.4,2.9,1.9,2.6,3.1,0,2.16666666666667,2.77777777777778,2.23076923076923,2.9
5,"control","congruent","red","red",139,"red",1,668,1,3.4,2.9,1.9,2.6,3.1,0,2.16666666666667,2.77777777777778,2.23076923076923,2.9
5,"control","incongruent","blue","yellow",140,"yellow",1,2085,1,3.4,2.9,1.9,2.6,3.1,0,2.16666666666667,2.77777777777778,2.23076923076923,2.9
5,"control","congruent","blue","blue",141,"blue",1,947,1,3.4,2.9,1.9,2.6,3.1,0,2.16666666666667,2.77777777777778,2.23076923076923,2.9
5,"control","congruent","yellow","yellow",142,"yellow",1,889,1,3.4,2.9,1.9,2.6,3.1,0,2.16666666666667,2.77777777777778,2.23076923076923,2.9
5,"control","congruent","blue","blue",143,"blue",1,1243,1,3.4,2.9,1.9,2.6,3.1,0,2.16666666666667,2.77777777777778,2.23076923076923,2.9
5,"control","congruent","red","red",144,"red",1,773,1,3.4,2.9,1.9,2.6,3.1,0,2.16666666666667,2.77777777777778,2.23076923076923,2.9
5,"control","congruent","yellow","yellow",145,"yellow",1,1095,1,3.4,2.9,1.9,2.6,3.1,0,2.16666666666667,2.77777777777778,2.23076923076923,2.9
5,"control","congruent","yellow","yellow",146,"yellow",1,602,1,3.4,2.9,1.9,2.6,3.1,0,2.16666666666667,2.77777777777778,2.23076923076923,2.9
5,"control","incongruent","yellow","red",147,"red",1,1013,1,3.4,2.9,1.9,2.6,3.1,0,2.16666666666667,2.77777777777778,2.23076923076923,2.9
5,"control","congruent","blue","blue",148,"blue",1,749,1,3.4,2.9,1.9,2.6,3.1,0,2.16666666666667,2.77777777777778,2.23076923076923,2.9
5,"control","incongruent","blue","yellow",149,"yellow",1,751,1,3.4,2.9,1.9,2.6,3.1,0,2.16666666666667,2.77777777777778,2.23076923076923,2.9
5,"control","congruent","blue","blue",150,"blue",1,742,1,3.4,2.9,1.9,2.6,3.1,0,2.16666666666667,2.77777777777778,2.23076923076923,2.9
5,"control","incongruent","yellow","blue",151,"blue",1,790,1,3.4,2.9,1.9,2.6,3.1,0,2.16666666666667,2.77777777777778,2.23076923076923,2.9
5,"control","congruent","red","red",152,"red",1,948,1,3.4,2.9,1.9,2.6,3.1,0,2.16666666666667,2.77777777777778,2.23076923076923,2.9
5,"control","congruent","red","red",153,"red",1,1005,1,3.4,2.9,1.9,2.6,3.1,0,2.16666666666667,2.77777777777778,2.23076923076923,2.9
5,"control","congruent","yellow","yellow",154,"yellow",1,987,1,3.4,2.9,1.9,2.6,3.1,0,2.16666666666667,2.77777777777778,2.23076923076923,2.9
5,"control","congruent","blue","blue",155,"blue",1,795,1,3.4,2.9,1.9,2.6,3.1,0,2.16666666666667,2.77777777777778,2.23076923076923,2.9
5,"control","congruent","yellow","yellow",156,"yellow",1,1234,1,3.4,2.9,1.9,2.6,3.1,0,2.16666666666667,2.77777777777778,2.23076923076923,2.9
5,"control","congruent","blue","blue",157,"blue",1,768,1,3.4,2.9,1.9,2.6,3.1,0,2.16666666666667,2.77777777777778,2.23076923076923,2.9
5,"control","congruent","red","red",158,"red",1,706,1,3.4,2.9,1.9,2.6,3.1,0,2.16666666666667,2.77777777777778,2.23076923076923,2.9
5,"control","incongruent","red","blue",159,"blue",1,1908,1,3.4,2.9,1.9,2.6,3.1,0,2.16666666666667,2.77777777777778,2.23076923076923,2.9
5,"control","congruent","red","red",160,"red",1,723,1,3.4,2.9,1.9,2.6,3.1,0,2.16666666666667,2.77777777777778,2.23076923076923,2.9
5,"control","incongruent","red","yellow",161,"yellow",1,714,1,3.4,2.9,1.9,2.6,3.1,0,2.16666666666667,2.77777777777778,2.23076923076923,2.9
5,"control","incongruent","blue","red",162,"red",1,1090,1,3.4,2.9,1.9,2.6,3.1,0,2.16666666666667,2.77777777777778,2.23076923076923,2.9
5,"control","congruent","blue","blue",163,"blue",1,547,1,3.4,2.9,1.9,2.6,3.1,0,2.16666666666667,2.77777777777778,2.23076923076923,2.9
5,"control","congruent","yellow","yellow",164,"yellow",1,464,1,3.4,2.9,1.9,2.6,3.1,0,2.16666666666667,2.77777777777778,2.23076923076923,2.9
5,"control","congruent","blue","blue",165,"blue",1,883,1,3.4,2.9,1.9,2.6,3.1,0,2.16666666666667,2.77777777777778,2.23076923076923,2.9
5,"control","congruent","red","red",166,"red",1,977,1,3.4,2.9,1.9,2.6,3.1,0,2.16666666666667,2.77777777777778,2.23076923076923,2.9
5,"control","incongruent","yellow","blue",167,"blue",1,1013,1,3.4,2.9,1.9,2.6,3.1,0,2.16666666666667,2.77777777777778,2.23076923076923,2.9
5,"control","incongruent","blue","red",168,"red",1,995,1,3.4,2.9,1.9,2.6,3.1,0,2.16666666666667,2.77777777777778,2.23076923076923,2.9
5,"control","congruent","red","red",169,"red",1,1211,1,3.4,2.9,1.9,2.6,3.1,0,2.16666666666667,2.77777777777778,2.23076923076923,2.9
5,"control","incongruent","red","yellow",170,"yellow",1,834,1,3.4,2.9,1.9,2.6,3.1,0,2.16666666666667,2.77777777777778,2.23076923076923,2.9
5,"control","congruent","yellow","yellow",171,"yellow",1,809,1,3.4,2.9,1.9,2.6,3.1,0,2.16666666666667,2.77777777777778,2.23076923076923,2.9
5,"control","congruent","blue","blue",172,"blue",1,921,1,3.4,2.9,1.9,2.6,3.1,0,2.16666666666667,2.77777777777778,2.23076923076923,2.9
5,"control","congruent","blue","blue",173,"blue",1,733,1,3.4,2.9,1.9,2.6,3.1,0,2.16666666666667,2.77777777777778,2.23076923076923,2.9
5,"control","congruent","red","red",174,"red",1,636,1,3.4,2.9,1.9,2.6,3.1,0,2.16666666666667,2.77777777777778,2.23076923076923,2.9
5,"control","incongruent","blue","yellow",175,"yellow",1,807,1,3.4,2.9,1.9,2.6,3.1,0,2.16666666666667,2.77777777777778,2.23076923076923,2.9
5,"control","congruent","yellow","yellow",176,"yellow",1,1904,1,3.4,2.9,1.9,2.6,3.1,0,2.16666666666667,2.77777777777778,2.23076923076923,2.9
5,"control","congruent","yellow","yellow",177,"yellow",1,612,1,3.4,2.9,1.9,2.6,3.1,0,2.16666666666667,2.77777777777778,2.23076923076923,2.9
5,"control","incongruent","red","blue",178,"blue",1,871,1,3.4,2.9,1.9,2.6,3.1,0,2.16666666666667,2.77777777777778,2.23076923076923,2.9
5,"control","congruent","red","red",179,"red",1,693,1,3.4,2.9,1.9,2.6,3.1,0,2.16666666666667,2.77777777777778,2.23076923076923,2.9
5,"control","incongruent","yellow","red",180,"red",1,723,1,3.4,2.9,1.9,2.6,3.1,0,2.16666666666667,2.77777777777778,2.23076923076923,2.9
5,"test","congruent","blue","blue",1,"red",0,1250,1,7,6.4,7,7,7,0,2.16666666666667,2.77777777777778,2.23076923076923,2.9
5,"test","incongruent","blue","red",2,"red",1,757,1,7,6.4,7,7,7,0,2.16666666666667,2.77777777777778,2.23076923076923,2.9
5,"test","congruent","red","red",3,"red",1,576,1,7,6.4,7,7,7,0,2.16666666666667,2.77777777777778,2.23076923076923,2.9
5,"test","congruent","yellow","yellow",4,"yellow",1,767,1,7,6.4,7,7,7,0,2.16666666666667,2.77777777777778,2.23076923076923,2.9
5,"test","congruent","blue","blue",5,"blue",1,687,1,7,6.4,7,7,7,0,2.16666666666667,2.77777777777778,2.23076923076923,2.9
5,"test","incongruent","blue","yellow",6,"yellow",1,913,1,7,6.4,7,7,7,0,2.16666666666667,2.77777777777778,2.23076923076923,2.9
5,"test","congruent","red","red",7,"red",1,896,1,7,6.4,7,7,7,0,2.16666666666667,2.77777777777778,2.23076923076923,2.9
5,"test","incongruent","red","blue",8,"blue",1,776,1,7,6.4,7,7,7,0,2.16666666666667,2.77777777777778,2.23076923076923,2.9
5,"test","congruent","yellow","yellow",9,"yellow",1,605,1,7,6.4,7,7,7,0,2.16666666666667,2.77777777777778,2.23076923076923,2.9
5,"test","incongruent","yellow","red",10,"red",1,1195,1,7,6.4,7,7,7,0,2.16666666666667,2.77777777777778,2.23076923076923,2.9
5,"test","congruent","blue","blue",11,"blue",1,491,1,7,6.4,7,7,7,0,2.16666666666667,2.77777777777778,2.23076923076923,2.9
5,"test","congruent","red","red",12,"red",1,880,1,7,6.4,7,7,7,0,2.16666666666667,2.77777777777778,2.23076923076923,2.9
5,"test","congruent","red","red",13,"red",1,1023,1,7,6.4,7,7,7,0,2.16666666666667,2.77777777777778,2.23076923076923,2.9
5,"test","incongruent","red","yellow",14,"yellow",1,1370,1,7,6.4,7,7,7,0,2.16666666666667,2.77777777777778,2.23076923076923,2.9
5,"test","congruent","yellow","yellow",15,"yellow",1,604,1,7,6.4,7,7,7,0,2.16666666666667,2.77777777777778,2.23076923076923,2.9
5,"test","congruent","yellow","yellow",16,"yellow",1,665,1,7,6.4,7,7,7,0,2.16666666666667,2.77777777777778,2.23076923076923,2.9
5,"test","incongruent","yellow","blue",17,"blue",1,1055,1,7,6.4,7,7,7,0,2.16666666666667,2.77777777777778,2.23076923076923,2.9
5,"test","congruent","blue","blue",18,"blue",1,4823,1,7,6.4,7,7,7,0,2.16666666666667,2.77777777777778,2.23076923076923,2.9
5,"test","congruent","red","red",19,"red",1,935,1,7,6.4,7,7,7,0,2.16666666666667,2.77777777777778,2.23076923076923,2.9
5,"test","incongruent","yellow","red",20,"red",1,1678,1,7,6.4,7,7,7,0,2.16666666666667,2.77777777777778,2.23076923076923,2.9
5,"test","congruent","yellow","yellow",21,"yellow",1,1743,1,7,6.4,7,7,7,0,2.16666666666667,2.77777777777778,2.23076923076923,2.9
5,"test","incongruent","yellow","blue",22,"yellow",0,1156,1,7,6.4,7,7,7,0,2.16666666666667,2.77777777777778,2.23076923076923,2.9
5,"test","congruent","yellow","yellow",23,"yellow",1,1131,1,7,6.4,7,7,7,0,2.16666666666667,2.77777777777778,2.23076923076923,2.9
5,"test","congruent","blue","blue",24,"blue",1,1036,1,7,6.4,7,7,7,0,2.16666666666667,2.77777777777778,2.23076923076923,2.9
5,"test","congruent","blue","blue",25,"blue",1,631,1,7,6.4,7,7,7,0,2.16666666666667,2.77777777777778,2.23076923076923,2.9
5,"test","incongruent","blue","yellow",26,"yellow",1,1639,1,7,6.4,7,7,7,0,2.16666666666667,2.77777777777778,2.23076923076923,2.9
5,"test","congruent","red","red",27,"red",1,1871,1,7,6.4,7,7,7,0,2.16666666666667,2.77777777777778,2.23076923076923,2.9
5,"test","incongruent","red","blue",28,"blue",1,1077,1,7,6.4,7,7,7,0,2.16666666666667,2.77777777777778,2.23076923076923,2.9
5,"test","congruent","yellow","yellow",29,"yellow",1,860,1,7,6.4,7,7,7,0,2.16666666666667,2.77777777777778,2.23076923076923,2.9
5,"test","congruent","red","red",30,"red",1,636,1,7,6.4,7,7,7,0,2.16666666666667,2.77777777777778,2.23076923076923,2.9
5,"test","congruent","red","red",31,"red",1,837,1,7,6.4,7,7,7,0,2.16666666666667,2.77777777777778,2.23076923076923,2.9
5,"test","congruent","yellow","yellow",32,"yellow",1,948,1,7,6.4,7,7,7,0,2.16666666666667,2.77777777777778,2.23076923076923,2.9
5,"test","congruent","blue","blue",33,"blue",1,1927,1,7,6.4,7,7,7,0,2.16666666666667,2.77777777777778,2.23076923076923,2.9
5,"test","congruent","blue","blue",34,"blue",1,680,1,7,6.4,7,7,7,0,2.16666666666667,2.77777777777778,2.23076923076923,2.9
5,"test","incongruent","red","yellow",35,"yellow",1,1121,1,7,6.4,7,7,7,0,2.16666666666667,2.77777777777778,2.23076923076923,2.9
5,"test","incongruent","blue","red",36,"red",1,999,1,7,6.4,7,7,7,0,2.16666666666667,2.77777777777778,2.23076923076923,2.9
5,"test","congruent","red","red",37,"red",1,972,1,7,6.4,7,7,7,0,2.16666666666667,2.77777777777778,2.23076923076923,2.9
5,"test","congruent","red","red",38,"red",1,533,1,7,6.4,7,7,7,0,2.16666666666667,2.77777777777778,2.23076923076923,2.9
5,"test","congruent","yellow","yellow",39,"yellow",1,854,1,7,6.4,7,7,7,0,2.16666666666667,2.77777777777778,2.23076923076923,2.9
5,"test","congruent","yellow","yellow",40,"yellow",1,561,1,7,6.4,7,7,7,0,2.16666666666667,2.77777777777778,2.23076923076923,2.9
5,"test","congruent","blue","blue",41,"blue",1,1820,1,7,6.4,7,7,7,0,2.16666666666667,2.77777777777778,2.23076923076923,2.9
5,"test","incongruent","red","blue",42,"blue",1,2313,1,7,6.4,7,7,7,0,2.16666666666667,2.77777777777778,2.23076923076923,2.9
5,"test","incongruent","yellow","red",43,"red",1,1053,1,7,6.4,7,7,7,0,2.16666666666667,2.77777777777778,2.23076923076923,2.9
5,"test","congruent","blue","blue",44,"blue",1,655,1,7,6.4,7,7,7,0,2.16666666666667,2.77777777777778,2.23076923076923,2.9
5,"test","incongruent","red","yellow",45,"yellow",1,2558,1,7,6.4,7,7,7,0,2.16666666666667,2.77777777777778,2.23076923076923,2.9
5,"test","incongruent","blue","yellow",46,"yellow",1,577,1,7,6.4,7,7,7,0,2.16666666666667,2.77777777777778,2.23076923076923,2.9
5,"test","congruent","yellow","yellow",47,"yellow",1,622,1,7,6.4,7,7,7,0,2.16666666666667,2.77777777777778,2.23076923076923,2.9
5,"test","incongruent","yellow","blue",48,"blue",1,1676,1,7,6.4,7,7,7,0,2.16666666666667,2.77777777777778,2.23076923076923,2.9
5,"test","congruent","yellow","yellow",49,"yellow",1,833,1,7,6.4,7,7,7,0,2.16666666666667,2.77777777777778,2.23076923076923,2.9
5,"test","congruent","red","red",50,"red",1,1042,1,7,6.4,7,7,7,0,2.16666666666667,2.77777777777778,2.23076923076923,2.9
5,"test","congruent","blue","blue",51,"blue",1,850,1,7,6.4,7,7,7,0,2.16666666666667,2.77777777777778,2.23076923076923,2.9
5,"test","incongruent","blue","red",52,"yellow",0,953,1,7,6.4,7,7,7,0,2.16666666666667,2.77777777777778,2.23076923076923,2.9
5,"test","congruent","red","red",53,"red",1,821,1,7,6.4,7,7,7,0,2.16666666666667,2.77777777777778,2.23076923076923,2.9
5,"test","congruent","blue","blue",54,"blue",1,4009,1,7,6.4,7,7,7,0,2.16666666666667,2.77777777777778,2.23076923076923,2.9
5,"test","congruent","yellow","yellow",55,"yellow",1,665,1,7,6.4,7,7,7,0,2.16666666666667,2.77777777777778,2.23076923076923,2.9
5,"test","congruent","blue","blue",56,"blue",1,986,1,7,6.4,7,7,7,0,2.16666666666667,2.77777777777778,2.23076923076923,2.9
5,"test","incongruent","yellow","blue",57,"blue",1,909,1,7,6.4,7,7,7,0,2.16666666666667,2.77777777777778,2.23076923076923,2.9
5,"test","congruent","yellow","yellow",58,"yellow",1,591,1,7,6.4,7,7,7,0,2.16666666666667,2.77777777777778,2.23076923076923,2.9
5,"test","congruent","red","red",59,"red",1,899,1,7,6.4,7,7,7,0,2.16666666666667,2.77777777777778,2.23076923076923,2.9
5,"test","incongruent","yellow","red",60,"red",1,2006,1,7,6.4,7,7,7,0,2.16666666666667,2.77777777777778,2.23076923076923,2.9
5,"test","incongruent","blue","yellow",61,"blue",0,754,1,7,6.4,7,7,7,0,2.16666666666667,2.77777777777778,2.23076923076923,2.9
5,"test","congruent","red","red",62,"red",1,1263,1,7,6.4,7,7,7,0,2.16666666666667,2.77777777777778,2.23076923076923,2.9
5,"test","congruent","blue","blue",63,"blue",1,779,1,7,6.4,7,7,7,0,2.16666666666667,2.77777777777778,2.23076923076923,2.9
5,"test","incongruent","red","yellow",64,"red",0,797,1,7,6.4,7,7,7,0,2.16666666666667,2.77777777777778,2.23076923076923,2.9
5,"test","incongruent","blue","red",65,"blue",0,1444,1,7,6.4,7,7,7,0,2.16666666666667,2.77777777777778,2.23076923076923,2.9
5,"test","congruent","red","red",66,"red",1,1498,1,7,6.4,7,7,7,0,2.16666666666667,2.77777777777778,2.23076923076923,2.9
5,"test","congruent","yellow","yellow",67,"yellow",1,1055,1,7,6.4,7,7,7,0,2.16666666666667,2.77777777777778,2.23076923076923,2.9
5,"test","congruent","red","red",68,"red",1,929,1,7,6.4,7,7,7,0,2.16666666666667,2.77777777777778,2.23076923076923,2.9
5,"test","incongruent","red","blue",69,"blue",1,981,1,7,6.4,7,7,7,0,2.16666666666667,2.77777777777778,2.23076923076923,2.9
5,"test","congruent","blue","blue",70,"blue",1,859,1,7,6.4,7,7,7,0,2.16666666666667,2.77777777777778,2.23076923076923,2.9
5,"test","congruent","blue","blue",71,"blue",1,727,1,7,6.4,7,7,7,0,2.16666666666667,2.77777777777778,2.23076923076923,2.9
5,"test","congruent","yellow","yellow",72,"yellow",1,740,1,7,6.4,7,7,7,0,2.16666666666667,2.77777777777778,2.23076923076923,2.9
5,"test","congruent","blue","blue",73,"blue",1,1035,1,7,6.4,7,7,7,0,2.16666666666667,2.77777777777778,2.23076923076923,2.9
5,"test","incongruent","yellow","blue",74,"blue",1,655,1,7,6.4,7,7,7,0,2.16666666666667,2.77777777777778,2.23076923076923,2.9
5,"test","incongruent","yellow","red",75,"red",1,862,1,7,6.4,7,7,7,0,2.16666666666667,2.77777777777778,2.23076923076923,2.9
5,"test","congruent","red","red",76,"red",1,1213,1,7,6.4,7,7,7,0,2.16666666666667,2.77777777777778,2.23076923076923,2.9
5,"test","incongruent","red","yellow",77,"yellow",1,934,1,7,6.4,7,7,7,0,2.16666666666667,2.77777777777778,2.23076923076923,2.9
5,"test","congruent","yellow","yellow",78,"yellow",1,905,1,7,6.4,7,7,7,0,2.16666666666667,2.77777777777778,2.23076923076923,2.9
5,"test","congruent","red","red",79,"red",1,1658,1,7,6.4,7,7,7,0,2.16666666666667,2.77777777777778,2.23076923076923,2.9
5,"test","congruent","blue","blue",80,"yellow",0,1411,1,7,6.4,7,7,7,0,2.16666666666667,2.77777777777778,2.23076923076923,2.9
5,"test","congruent","yellow","yellow",81,"yellow",1,1037,1,7,6.4,7,7,7,0,2.16666666666667,2.77777777777778,2.23076923076923,2.9
5,"test","congruent","blue","blue",82,"blue",1,723,1,7,6.4,7,7,7,0,2.16666666666667,2.77777777777778,2.23076923076923,2.9
5,"test","congruent","yellow","yellow",83,"yellow",1,719,1,7,6.4,7,7,7,0,2.16666666666667,2.77777777777778,2.23076923076923,2.9
5,"test","congruent","yellow","yellow",84,"yellow",1,631,1,7,6.4,7,7,7,0,2.16666666666667,2.77777777777778,2.23076923076923,2.9
5,"test","congruent","blue","blue",85,"blue",1,819,1,7,6.4,7,7,7,0,2.16666666666667,2.77777777777778,2.23076923076923,2.9
5,"test","incongruent","red","blue",86,"blue",1,867,1,7,6.4,7,7,7,0,2.16666666666667,2.77777777777778,2.23076923076923,2.9
5,"test","incongruent","blue","yellow",87,"yellow",1,2472,1,7,6.4,7,7,7,0,2.16666666666667,2.77777777777778,2.23076923076923,2.9
5,"test","incongruent","blue","red",88,"red",1,1344,1,7,6.4,7,7,7,0,2.16666666666667,2.77777777777778,2.23076923076923,2.9
5,"test","congruent","red","red",89,"red",1,734,1,7,6.4,7,7,7,0,2.16666666666667,2.77777777777778,2.23076923076923,2.9
5,"test","congruent","red","red",90,"red",1,598,1,7,6.4,7,7,7,0,2.16666666666667,2.77777777777778,2.23076923076923,2.9
5,"test","congruent","red","red",91,"red",1,595,1,7,6.4,7,7,7,0,2.16666666666667,2.77777777777778,2.23076923076923,2.9
5,"test","incongruent","blue","yellow",92,"yellow",1,1427,1,7,6.4,7,7,7,0,2.16666666666667,2.77777777777778,2.23076923076923,2.9
5,"test","congruent","blue","blue",93,"blue",1,1953,1,7,6.4,7,7,7,0,2.16666666666667,2.77777777777778,2.23076923076923,2.9
5,"test","incongruent","blue","red",94,"red",1,1636,1,7,6.4,7,7,7,0,2.16666666666667,2.77777777777778,2.23076923076923,2.9
5,"test","incongruent","yellow","blue",95,"blue",1,1312,1,7,6.4,7,7,7,0,2.16666666666667,2.77777777777778,2.23076923076923,2.9
5,"test","congruent","yellow","yellow",96,"yellow",1,1941,1,7,6.4,7,7,7,0,2.16666666666667,2.77777777777778,2.23076923076923,2.9
5,"test","congruent","yellow","yellow",97,"yellow",1,659,1,7,6.4,7,7,7,0,2.16666666666667,2.77777777777778,2.23076923076923,2.9
5,"test","congruent","red","red",98,"red",1,1078,1,7,6.4,7,7,7,0,2.16666666666667,2.77777777777778,2.23076923076923,2.9
5,"test","congruent","blue","blue",99,"blue",1,932,1,7,6.4,7,7,7,0,2.16666666666667,2.77777777777778,2.23076923076923,2.9
5,"test","congruent","blue","blue",100,"blue",1,682,1,7,6.4,7,7,7,0,2.16666666666667,2.77777777777778,2.23076923076923,2.9
5,"test","incongruent","yellow","red",101,"red",1,1371,1,7,6.4,7,7,7,0,2.16666666666667,2.77777777777778,2.23076923076923,2.9
5,"test","incongruent","red","yellow",102,"yellow",1,1079,1,7,6.4,7,7,7,0,2.16666666666667,2.77777777777778,2.23076923076923,2.9
5,"test","incongruent","red","blue",103,"blue",1,1178,1,7,6.4,7,7,7,0,2.16666666666667,2.77777777777778,2.23076923076923,2.9
5,"test","congruent","red","red",104,"red",1,750,1,7,6.4,7,7,7,0,2.16666666666667,2.77777777777778,2.23076923076923,2.9
5,"test","congruent","yellow","yellow",105,"yellow",1,1446,1,7,6.4,7,7,7,0,2.16666666666667,2.77777777777778,2.23076923076923,2.9
5,"test","congruent","red","red",106,"red",1,1210,1,7,6.4,7,7,7,0,2.16666666666667,2.77777777777778,2.23076923076923,2.9
5,"test","congruent","blue","blue",107,"blue",1,956,1,7,6.4,7,7,7,0,2.16666666666667,2.77777777777778,2.23076923076923,2.9
5,"test","congruent","yellow","yellow",108,"yellow",1,958,1,7,6.4,7,7,7,0,2.16666666666667,2.77777777777778,2.23076923076923,2.9
5,"test","incongruent","red","yellow",109,"yellow",1,997,1,7,6.4,7,7,7,0,2.16666666666667,2.77777777777778,2.23076923076923,2.9
5,"test","congruent","blue","blue",110,"blue",1,691,1,7,6.4,7,7,7,0,2.16666666666667,2.77777777777778,2.23076923076923,2.9
5,"test","congruent","blue","blue",111,"blue",1,663,1,7,6.4,7,7,7,0,2.16666666666667,2.77777777777778,2.23076923076923,2.9
5,"test","incongruent","yellow","red",112,"blue",0,376,1,7,6.4,7,7,7,0,2.16666666666667,2.77777777777778,2.23076923076923,2.9
5,"test","congruent","yellow","yellow",113,"red",0,347,1,7,6.4,7,7,7,0,2.16666666666667,2.77777777777778,2.23076923076923,2.9
5,"test","congruent","yellow","yellow",114,"red",0,220,1,7,6.4,7,7,7,0,2.16666666666667,2.77777777777778,2.23076923076923,2.9
5,"test","congruent","red","red",115,"yellow",0,304,1,7,6.4,7,7,7,0,2.16666666666667,2.77777777777778,2.23076923076923,2.9
5,"test","incongruent","red","blue",116,"yellow",0,412,1,7,6.4,7,7,7,0,2.16666666666667,2.77777777777778,2.23076923076923,2.9
5,"test","congruent","red","red",117,"red",1,264,1,7,6.4,7,7,7,0,2.16666666666667,2.77777777777778,2.23076923076923,2.9
5,"test","congruent","red","red",118,"yellow",0,325,1,7,6.4,7,7,7,0,2.16666666666667,2.77777777777778,2.23076923076923,2.9
5,"test","congruent","yellow","yellow",119,"yellow",1,403,1,7,6.4,7,7,7,0,2.16666666666667,2.77777777777778,2.23076923076923,2.9
5,"test","congruent","blue","blue",120,"red",0,351,1,7,6.4,7,7,7,0,2.16666666666667,2.77777777777778,2.23076923076923,2.9
5,"test","incongruent","blue","red",121,"blue",0,553,1,7,6.4,7,7,7,0,2.16666666666667,2.77777777777778,2.23076923076923,2.9
5,"test","congruent","blue","blue",122,"blue",1,432,1,7,6.4,7,7,7,0,2.16666666666667,2.77777777777778,2.23076923076923,2.9
5,"test","congruent","yellow","yellow",123,"yellow",1,645,1,7,6.4,7,7,7,0,2.16666666666667,2.77777777777778,2.23076923076923,2.9
5,"test","incongruent","yellow","blue",124,"yellow",0,444,1,7,6.4,7,7,7,0,2.16666666666667,2.77777777777778,2.23076923076923,2.9
5,"test","congruent","red","red",125,"blue",0,1140,1,7,6.4,7,7,7,0,2.16666666666667,2.77777777777778,2.23076923076923,2.9
5,"test","incongruent","blue","yellow",126,"yellow",1,904,1,7,6.4,7,7,7,0,2.16666666666667,2.77777777777778,2.23076923076923,2.9
5,"test","congruent","yellow","yellow",127,"yellow",1,81,1,7,6.4,7,7,7,0,2.16666666666667,2.77777777777778,2.23076923076923,2.9
5,"test","congruent","blue","blue",128,"blue",1,505,1,7,6.4,7,7,7,0,2.16666666666667,2.77777777777778,2.23076923076923,2.9
5,"test","congruent","yellow","yellow",129,"yellow",1,6336,1,7,6.4,7,7,7,0,2.16666666666667,2.77777777777778,2.23076923076923,2.9
5,"test","congruent","red","red",130,"yellow",0,1086,1,7,6.4,7,7,7,0,2.16666666666667,2.77777777777778,2.23076923076923,2.9
5,"test","congruent","red","red",131,"blue",0,382,1,7,6.4,7,7,7,0,2.16666666666667,2.77777777777778,2.23076923076923,2.9
5,"test","congruent","blue","blue",132,"yellow",0,314,1,7,6.4,7,7,7,0,2.16666666666667,2.77777777777778,2.23076923076923,2.9
5,"test","incongruent","blue","yellow",133,"yellow",1,92,1,7,6.4,7,7,7,0,2.16666666666667,2.77777777777778,2.23076923076923,2.9
5,"test","incongruent","yellow","red",134,"blue",0,189,1,7,6.4,7,7,7,0,2.16666666666667,2.77777777777778,2.23076923076923,2.9
5,"test","incongruent","red","blue",135,"yellow",0,209,1,7,6.4,7,7,7,0,2.16666666666667,2.77777777777778,2.23076923076923,2.9
5,"test","congruent","yellow","yellow",136,"blue",0,336,1,7,6.4,7,7,7,0,2.16666666666667,2.77777777777778,2.23076923076923,2.9
5,"test","congruent","blue","blue",137,"blue",1,306,1,7,6.4,7,7,7,0,2.16666666666667,2.77777777777778,2.23076923076923,2.9
5,"test","incongruent","yellow","blue",138,"yellow",0,395,1,7,6.4,7,7,7,0,2.16666666666667,2.77777777777778,2.23076923076923,2.9
5,"test","congruent","red","red",139,"yellow",0,167,1,7,6.4,7,7,7,0,2.16666666666667,2.77777777777778,2.23076923076923,2.9
5,"test","incongruent","blue","red",140,"yellow",0,536,1,7,6.4,7,7,7,0,2.16666666666667,2.77777777777778,2.23076923076923,2.9
5,"test","congruent","blue","blue",141,"blue",1,2120,1,7,6.4,7,7,7,0,2.16666666666667,2.77777777777778,2.23076923076923,2.9
5,"test","congruent","red","red",142,"red",1,632,1,7,6.4,7,7,7,0,2.16666666666667,2.77777777777778,2.23076923076923,2.9
5,"test","incongruent","red","yellow",143,"yellow",1,1546,1,7,6.4,7,7,7,0,2.16666666666667,2.77777777777778,2.23076923076923,2.9
5,"test","congruent","yellow","yellow",144,"yellow",1,614,1,7,6.4,7,7,7,0,2.16666666666667,2.77777777777778,2.23076923076923,2.9
5,"test","incongruent","blue","red",145,"red",1,770,1,7,6.4,7,7,7,0,2.16666666666667,2.77777777777778,2.23076923076923,2.9
5,"test","congruent","red","red",146,"red",1,732,1,7,6.4,7,7,7,0,2.16666666666667,2.77777777777778,2.23076923076923,2.9
5,"test","congruent","blue","blue",147,"blue",1,789,1,7,6.4,7,7,7,0,2.16666666666667,2.77777777777778,2.23076923076923,2.9
5,"test","incongruent","yellow","blue",148,"blue",1,938,1,7,6.4,7,7,7,0,2.16666666666667,2.77777777777778,2.23076923076923,2.9
5,"test","congruent","red","red",149,"red",1,1396,1,7,6.4,7,7,7,0,2.16666666666667,2.77777777777778,2.23076923076923,2.9
5,"test","congruent","yellow","yellow",150,"blue",0,633,1,7,6.4,7,7,7,0,2.16666666666667,2.77777777777778,2.23076923076923,2.9
5,"test","congruent","yellow","yellow",151,"yellow",1,351,1,7,6.4,7,7,7,0,2.16666666666667,2.77777777777778,2.23076923076923,2.9
5,"test","incongruent","blue","yellow",152,"yellow",1,1266,1,7,6.4,7,7,7,0,2.16666666666667,2.77777777777778,2.23076923076923,2.9
5,"test","congruent","blue","blue",153,"blue",1,725,1,7,6.4,7,7,7,0,2.16666666666667,2.77777777777778,2.23076923076923,2.9
5,"test","congruent","blue","blue",154,"blue",1,1106,1,7,6.4,7,7,7,0,2.16666666666667,2.77777777777778,2.23076923076923,2.9
5,"test","congruent","red","red",155,"red",1,907,1,7,6.4,7,7,7,0,2.16666666666667,2.77777777777778,2.23076923076923,2.9
5,"test","incongruent","yellow","red",156,"red",1,642,1,7,6.4,7,7,7,0,2.16666666666667,2.77777777777778,2.23076923076923,2.9
5,"test","congruent","red","red",157,"red",1,508,1,7,6.4,7,7,7,0,2.16666666666667,2.77777777777778,2.23076923076923,2.9
5,"test","incongruent","red","blue",158,"blue",1,1185,1,7,6.4,7,7,7,0,2.16666666666667,2.77777777777778,2.23076923076923,2.9
5,"test","incongruent","red","yellow",159,"blue",0,630,1,7,6.4,7,7,7,0,2.16666666666667,2.77777777777778,2.23076923076923,2.9
5,"test","congruent","yellow","yellow",160,"blue",0,196,1,7,6.4,7,7,7,0,2.16666666666667,2.77777777777778,2.23076923076923,2.9
5,"test","congruent","yellow","yellow",161,"yellow",1,180,1,7,6.4,7,7,7,0,2.16666666666667,2.77777777777778,2.23076923076923,2.9
5,"test","congruent","blue","blue",162,"blue",1,612,1,7,6.4,7,7,7,0,2.16666666666667,2.77777777777778,2.23076923076923,2.9
5,"test","congruent","red","red",163,"red",1,690,1,7,6.4,7,7,7,0,2.16666666666667,2.77777777777778,2.23076923076923,2.9
5,"test","congruent","yellow","yellow",164,"yellow",1,199,1,7,6.4,7,7,7,0,2.16666666666667,2.77777777777778,2.23076923076923,2.9
5,"test","congruent","blue","blue",165,"red",0,210,1,7,6.4,7,7,7,0,2.16666666666667,2.77777777777778,2.23076923076923,2.9
5,"test","congruent","yellow","yellow",166,"yellow",1,1953,1,7,6.4,7,7,7,0,2.16666666666667,2.77777777777778,2.23076923076923,2.9
5,"test","incongruent","red","yellow",167,"yellow",1,1516,1,7,6.4,7,7,7,0,2.16666666666667,2.77777777777778,2.23076923076923,2.9
5,"test","incongruent","yellow","blue",168,"yellow",0,3837,1,7,6.4,7,7,7,0,2.16666666666667,2.77777777777778,2.23076923076923,2.9
5,"test","congruent","red","red",169,"red",1,776,1,7,6.4,7,7,7,0,2.16666666666667,2.77777777777778,2.23076923076923,2.9
5,"test","incongruent","yellow","red",170,"red",1,1004,1,7,6.4,7,7,7,0,2.16666666666667,2.77777777777778,2.23076923076923,2.9
5,"test","congruent","blue","blue",171,"blue",1,763,1,7,6.4,7,7,7,0,2.16666666666667,2.77777777777778,2.23076923076923,2.9
5,"test","incongruent","blue","red",172,"blue",0,764,1,7,6.4,7,7,7,0,2.16666666666667,2.77777777777778,2.23076923076923,2.9
5,"test","congruent","yellow","yellow",173,"red",0,59,1,7,6.4,7,7,7,0,2.16666666666667,2.77777777777778,2.23076923076923,2.9
5,"test","incongruent","blue","yellow",174,"blue",0,1311,1,7,6.4,7,7,7,0,2.16666666666667,2.77777777777778,2.23076923076923,2.9
5,"test","congruent","red","red",175,"red",1,3085,1,7,6.4,7,7,7,0,2.16666666666667,2.77777777777778,2.23076923076923,2.9
5,"test","congruent","red","red",176,"blue",0,13,1,7,6.4,7,7,7,0,2.16666666666667,2.77777777777778,2.23076923076923,2.9
5,"test","congruent","yellow","yellow",177,"yellow",1,889,1,7,6.4,7,7,7,0,2.16666666666667,2.77777777777778,2.23076923076923,2.9
5,"test","congruent","blue","blue",178,"blue",1,734,1,7,6.4,7,7,7,0,2.16666666666667,2.77777777777778,2.23076923076923,2.9
5,"test","incongruent","red","blue",179,"blue",1,2195,1,7,6.4,7,7,7,0,2.16666666666667,2.77777777777778,2.23076923076923,2.9
5,"test","congruent","blue","blue",180,"blue",1,489,1,7,6.4,7,7,7,0,2.16666666666667,2.77777777777778,2.23076923076923,2.9
